sec,nanosec,accel_x,accel_y,accel_z,accel_nograv_x,accel_nograv_y,accel_nograv_z,pos_x,pos_y,pos_z,vel_x,vel_y,vel_z,gyro_x,gyro_y,gyro_z,ori_qx,ori_qy,ori_qz,ori_qw
0,0,0.23954402242325173,-0.27188871724453056,10.246123294221048,-0.12891773312193633,0.13167342575414862,0.4508726311792427,0.0,-0.0,-0.0,0.030849361726839667,-0.014697006782912223,-0.019822891470189796,0.029035991964834414,0.01800040820745678,0.0034701163033710033,-0.019966151692719977,-0.017646500436727244,-0.007347404538331523,0.9996179117320128
0,10000000,0.2528432681219552,-0.26680064657408403,10.189321445621673,-0.11155726486299873,0.1312763972079439,0.39449387216673204,0.0003023444968164313,-0.00014039035334789673,-0.00017663878720020065,0.029648471751782136,-0.01338172560053784,-0.015598830568204925,0.030561129240754274,0.02126367502161621,0.002756479635894818,-0.019814526816431765,-0.017551509958691248,-0.007322056910484035,0.9996227871091228
0,20000000,0.26424033079475473,-0.262409582968448,10.135892633004683,-0.09597881444464079,0.13024088758503713,0.3414410508482285,0.0005935184170198227,-0.0002676583876493055,-0.00031380047103723996,0.0286122763701111,-0.012073607109009022,-0.011921927567875133,0.03154805976196371,0.023375117758624237,0.0022945005258328925,-0.01965640070889942,-0.017443156490520365,-0.007299107085009863,0.999627973417401
0,30000000,0.2738526526350983,-0.25876903857310224,10.085832713917526,-0.08218238186686244,0.12856689688542813,0.29171416722373206,0.0008750796056062882,-0.0003819076538622568,-0.0004167903336398382,0.027722955403420724,-0.010779036119092771,-0.008758923092260333,0.03199669822234401,0.024334828237189843,0.0020844164965320923,-0.019494563090069424,-0.017327162096962962,-0.007277566472041624,0.9996333170167139
0,40000000,0.2817950182115289,-0.25593142574275535,10.039137020201887,-0.07016796712966372,0.12625442510911702,0.2453132212932427,0.0011484077058412367,-0.00048330555106979034,-0.0004905810633739627,0.026962688673305247,-0.00950439744155613,-0.0060765577644204625,0.03190695923995869,0.024142898380180314,0.002126465003785356,-0.01933180368048894,-0.017209248092180145,-0.00725643709312741,0.9996386683533577
0,50000000,0.2881799231368223,-0.2539481946083589,9.99580051501322,-0.05993557023304462,0.12330347225610382,0.2022382130567606,0.0014147041593446374,-0.0005720833264462044,-0.0005398127548326137,0.026313656001358862,-0.008256075887166111,-0.003841572207415454,0.03127875735707636,0.022799420214596567,0.0024208834357679473,-0.01917091242817956,-0.017095134936035313,-0.007234711057764037,0.9996438823071446
0,60000000,0.2931179407652319,-0.25286997315570103,9.955817934257123,-0.05148519117700513,0.11971403832638843,0.1624891425142856,0.0016749922054941635,-0.0006485360752588321,-0.0005687929088353805,0.025758037209175758,-0.00704045626668973,-0.0020207070443052306,0.030112007059967354,0.020304485864463432,0.0029679091228348616,-0.01901467947339871,-0.016990542241203156,-0.007211370669479707,0.9996488181216148
0,70000000,0.29671808689530565,-0.2527467097028013,9.919183912944352,-0.04481682996154525,0.11548612331997088,0.12606600966581752,0.0019301168824767956,-0.0007130227409213319,-0.0005814964324404315,0.025278012118350148,-0.0058639233908940125,-0.0005807028981497194,0.028406622818464487,0.016658187536645098,0.0037677793572058107,-0.01886589484917134,-0.016901188893117217,-0.007185389161353084,0.9996533389171164
0,80000000,0.29908818248949626,-0.25362781770911264,9.885893096826736,-0.03993048658666498,0.1106197272368512,0.09296881451135666,0.0021807450262656403,-0.0007659661149279628,-0.0005815656389307478,0.024855760550476245,-0.004732862070545983,0.0005116996079911468,0.026162519145283034,0.011860617499591249,0.0048207314225514435,-0.018727347915641814,-0.01683279328463353,-0.007155732060806211,0.9996573107865302
0,90000000,0.3003352144499877,-0.25556232289325737,9.85594023953769,-0.03682616105236436,0.10511485007702943,0.06319755705090299,0.0024273652713304728,-0.0008078528368908877,-0.0005723102478243369,0.02447346232714825,-0.0036536571164126645,0.0012897598510574414,0.023379610675098358,0.005911868055015192,0.006127002633484962,-0.01860182652672398,-0.016791073666869022,-0.007121359183392173,0.9996606014735024
0,100000000,0.30056569451432336,-0.25859901267739394,9.829320285322106,-0.035503853358643346,0.09897149184050548,0.036752237284456396,0.002670288050040881,-0.0008392333945170805,-0.0005567073848649073,0.024113297269960365,-0.0026326933392610704,0.0017867372079892335,0.020057812263386127,-0.0011879684975009807,0.007686830384945601,-0.01849211592820049,-0.01678174861705213,-0.007081227255095237,0.9996630786332033
0,110000000,0.2998446997449573,-0.2627683001438796,9.806030190821577,-0.035963563505501964,0.09218965252727941,0.013632855212016997,0.002909645593319965,-0.0008607221236349716,-0.0005374015820294176,0.023757445200506794,-0.0016763555498582284,0.0020358910557265932,0.016746957678116254,-0.008166393030828221,0.009188038632378681,-0.018400046850511123,-0.01680842785346802,-0.007034727532446248,0.9996646575915036
0,120000000,0.29807301388405844,-0.26802780828815137,9.786074262008466,-0.03820529149294016,0.08476933213735119,-0.006160589166415379,0.0031453919301043243,-0.0008729972081749082,-0.0005167047775245237,0.02338808594038173,-0.0007910285589711574,0.0020704807712095983,0.013997003637262953,-0.013751043620539324,0.01031810551408068,-0.01832364459170495,-0.01686628335454605,-0.00698299431532178,0.9996654492004178
0,130000000,0.29511236830845,-0.27431776776990635,9.769458920611278,-0.04222903732095802,0.07671053067072084,-0.022628095850840614,0.00337730288754301,-0.0008768006801762596,-0.0004965963157887998,0.02298739931117939,1.6902822633122275e-05,0.0019237657313783108,0.011808045397902447,-0.017942032090509628,0.011076755337090863,-0.018259984585303125,-0.01694837826880504,-0.006927605069208715,0.9996656109544866
0,140000000,0.29082655424225146,-0.28157925069011314,9.75619086646984,-0.04803480098955547,0.06801324812738835,-0.035769664841258736,0.0036049760911396334,-0.0008729384197891932,-0.00047872294749140565,0.022537565134493974,0.0007410537841875874,0.0016290053131728052,0.010180173140961254,-0.020739466449288216,0.011463719399151875,-0.018206144989955615,-0.017047776006090497,-0.006870143341425361,0.9996652993619011
0,150000000,0.28508099238137974,-0.28975403268810396,9.746276959030121,-0.055622582498732545,0.05867748450735374,-0.04558529613766969,0.0038278309644965702,-0.0008622801552640169,-0.0004643988295303103,0.02202076323191968,0.0013750395149252144,0.0012194588935331603,0.009113471928387021,-0.022143450869039405,0.011478735966039875,-0.018159207880475946,-0.017157539719979648,-0.006812196021304189,0.9996646717701283
0,160000000,0.277742299368125,-0.29878445970194994,9.739724076312411,-0.06499238184848925,0.04870323981061695,-0.05207498974007355,0.004045108729400226,-0.0008457594629582843,-0.00045460552503495677,0.021419173425050713,0.001912475204078986,0.0007283858493994371,0.008608021688914398,-0.02215408567275125,0.011121550262266574,-0.018116259954786603,-0.017270731972620336,-0.006755351397802588,0.9996638875991634
0,170000000,0.26867785108970493,-0.30861331925435914,9.736538951913575,-0.07614419903882558,0.03809051403717801,-0.055238745648470276,0.004255872406019989,-0.0008243737673510054,-0.0004499920033662619,0.02071497553548129,0.00234697604088188,0.0001890455577117109,0.008663897231131944,-0.020771467329482277,0.010391914474055521,-0.018074392756099743,-0.017380414582403723,-0.006701198013381838,0.999663108982535
0,180000000,0.2577553428207402,-0.31918371619395824,9.736727990413558,-0.08907803406974149,0.026839307187037004,-0.05507656386285994,0.0044590068125955895,-0.0007991843410195543,-0.0004508746401166164,0.019890349384805613,0.0026721572145668735,-0.0003653026045899435,0.00928116828254777,-0.017995688457409627,0.009289587763516197,-0.018030702410327847,-0.017479648654222642,-0.006651324312839802,0.9996625008163508
0,190000000,0.2448423462848773,-0.33043895289431474,9.740297061365249,-0.10379388694123709,0.014949619260193794,-0.05158844438324241,0.004653218565607631,-0.0007713163046432214,-0.0004572372171045558,0.01892747479461786,0.0028816339143669448,-0.0009013992605654611,0.01045989955335662,-0.013826837834446869,0.007814336292925628,-0.01798228887906145,-0.01756149479181541,-0.006607319085795548,0.9996622302167095
0,200000000,0.22980586377458098,-0.3423224139888233,9.747251271854946,-0.12029175765331225,0.002421450256648472,-0.04477438720961781,0.004837036079806012,-0.0007419586270156486,-0.0004687309223836422,0.017808531586512275,0.0029690213295150763,-0.0013859850332747698,0.012200150823606851,-0.008265000416193751,0.005965933258040652,-0.01792625472839207,-0.017619013491810664,-0.006570772701702981,0.9996624653857374
0,210000000,0.21255245023527652,-0.35478541627458005,9.757593544310982,-0.13857164620596701,-0.010745199823598992,-0.03463439234198605,0.0050088095680109745,-0.0007123641250341706,-0.0004846743502358031,0.016515699582083022,0.002927934649244242,-0.0017858005457777942,0.014263489606366274,-0.002568061000318975,0.004031187159153302,-0.017860131304288714,-0.01764736173603351,-0.006542860279046735,0.9996633319837834
0,220000000,0.19314982785835655,-0.3678109278500273,9.7713213988748,-0.15863355259920145,-0.024550330980548596,-0.021168459780347204,0.005166711041539429,-0.0006838494637175785,-0.0005040535011757719,0.015031158602924335,0.0027519890627874235,-0.002067586421134468,0.016411417259286666,0.002006164697630532,0.002297155158785244,-0.01778315963904357,-0.017650081397250883,-0.006523085261365116,0.9996647854248921
0,230000000,0.17170570804226565,-0.3813894966355563,9.788431429436738,-0.18047747683301546,-0.038993943214200355,-0.004376589524701199,0.005308734309579677,-0.000657795156170593,-0.000525521781944871,0.013337088470630393,0.002434799759377595,-0.0021980832824047146,0.018643898843437742,0.005457704802602725,0.0007640092195818671,-0.017695005098165077,-0.017632810890226617,-0.006510532675802652,0.9996667363371469
0,240000000,0.14832763327471277,-0.3955111991131962,9.808920832334493,-0.20410341890740907,-0.0540760365245542,0.01574121842495188,0.0054326949797598445,-0.0006356455636211678,-0.0005474000055194495,0.011415669006795423,0.001969981928247741,-0.002144031752648466,0.02096090968719977,0.007786593260761383,-0.0005680507200067414,-0.017595330528567356,-0.017601188967973812,-0.006504286495894822,0.999669093624327
0,250000000,0.12312334196491513,-0.4101655669242304,9.83278763359764,-0.22951137882238237,-0.06979661091161024,0.039184964068612105,0.005536230458034197,-0.0006189088954027255,-0.0005676763911051097,0.009249080033013614,0.0013511507586308385,-0.0018721724549256528,0.02336243535788703,0.008992869860817002,-0.0016987967524072288,-0.017483797419052927,-0.01756085457201294,-0.006503428506595808,0.999671765447124
0,260000000,0.10059569437372037,-0.42321845162081023,9.855155804305102,-0.252111690452114,-0.08425125259569187,0.06116984442621187,0.005616838195322771,-0.0006091413388542577,-0.0005840464374338161,0.006834800246566687,0.0005782694809624542,-0.0013651953436799058,0.025848471645418685,0.00907658026072975,-0.002627973005558964,-0.017360066825985766,-0.01751744666446078,-0.006507037083810583,0.9996746598821764
0,270000000,0.08524992017815158,-0.4325397734888524,9.871149766206313,-0.26731467399249914,-0.09553554212152195,0.07691104225784615,0.0056722964079938265,-0.0006077724879691715,-0.000594351530008641,0.004231503984269158,-0.00032330645275549335,-0.0006695878414879739,0.02841902456183014,0.008037776019831962,-0.003355295646880429,-0.017223800063894276,-0.017476604041335064,-0.006514185888150038,0.9996776852589818
0,280000000,0.07719785836274312,-0.4381250488035791,9.880768973597732,-0.2751203294435352,-0.10364947948909942,0.0864085575635123,0.00570108479766418,-0.0006159307716888662,-0.0005970175490443985,0.0015131645270145269,-0.0013218735209404773,0.00015221322639045857,0.031074110360425247,0.005876514636400036,-0.0038804528879783466,-0.017074659160416623,-0.017443965126565972,-0.006523942472902882,0.9996807501746889
0,290000000,0.07655110026567144,-0.4399703819821024,9.884012175296888,-0.27552865680522215,-0.10859306469842424,0.08966239034321032,0.005702422798833595,-0.0006344275837619762,-0.0005910947430121105,-0.0012462448443037065,-0.0023857282020099684,0.0010377710346957075,0.033813755578367376,0.002592859590713317,-0.004203104991501129,-0.016912307074633603,-0.01742516774624169,-0.006535366806394018,0.9996837631867063
0,300000000,0.08342034605098708,-0.43807266387856725,9.880876559222152,-0.2685396560775602,-0.11036629774949652,0.08667254059694028,0.005676269578685833,-0.0006637572827035143,-0.0005762577286332338,-0.00397275084879208,-0.003483166974381452,0.0019246487581681027,0.036637997106508016,-0.001813119606366779,-0.004322884281548881,-0.01673640767744735,-0.017425848882568762,-0.006547509708990291,0.9996866321829991
0,310000000,0.09788271784745284,-0.432442388818341,9.871356650062136,-0.25415332726054896,-0.10896917864231614,0.07743900832470209,0.005623324037372868,-0.000704097191817965,-0.0005528054908832125,-0.006592380205557082,-0.004582486316472392,0.002750409571547953,0.0391641744242853,-0.006370519506507698,-0.004171091220868282,-0.01654723185566192,-0.017450016454417783,-0.006559303422118805,0.9996892825184593
0,320000000,0.11988541477273541,-0.4231415876787087,9.855443393439064,-0.23236967035418876,-0.1044017073768832,0.06196179352649579,0.005545024807673826,-0.0007553075991921787,-0.0005216613829874817,-0.00903115963370523,-0.005651982706700268,0.0034526166495755842,0.041009584246759205,-0.010108413209512874,-0.0036794718063222127,-0.01634747582323954,-0.017495164659580585,-0.006569242282392625,0.9996917146318549
0,330000000,0.14934252708297618,-0.41024580573788477,9.833125933907803,-0.20318868535847937,-0.09666388395319761,0.04024089620232134,0.005443550255392893,-0.0008169317577060298,-0.00048437312642723995,-0.011215115852343032,-0.006659952623482549,0.00396883316699131,0.04217422240786842,-0.0130266913125663,-0.0028482985098751633,-0.01614044097205375,-0.01755715672691923,-0.006575716193450346,0.9996939493512188
0,340000000,0.18616776271165325,-0.3938312898203271,9.804392793304368,-0.166610372273421,-0.08575570837125943,0.012276316352178795,0.005321818478961404,-0.0008881958850146532,-0.000443112810934565,-0.013070275580576997,-0.007574692545236714,0.004236622298535453,0.042658101417431024,-0.01512523495652935,-0.0016778335461150944,-0.015929427112599207,-0.017631852655906097,-0.006577121635814166,0.9996960100924543
0,350000000,0.23027508600446747,-0.37397479616113344,9.769232723212411,-0.12263473109901371,-0.07167718063106869,-0.02193194602393171,0.005183487309693646,-0.0009680091635573262,-0.00040067689449374555,-0.01452266553751362,-0.008364498950380227,0.004193547218948329,0.042461250438597296,-0.016403915834147163,-0.00016832887766404998,-0.01571773241027486,-0.01771510932941803,-0.006571863126707307,0.9996979235771021
0,360000000,0.2764097527750863,-0.3528862613072409,9.733371315951555,-0.07665976338433171,-0.05632425720236514,-0.0567767603443656,0.0050329093284062765,-0.0010549795401697537,-0.0003604394773386588,-0.015516305764669048,-0.009003988166579317,0.0037958615215318557,0.0415837152838995,-0.016862596187472666,0.0016799737836713183,-0.015508653572598478,-0.017802780842887753,-0.006558354129574473,0.9996997202409014
0,370000000,0.31932213971324835,-0.3327657965501212,9.702543028093084,-0.03408348998322922,-0.04159290133536502,-0.08665097597479382,0.004874637048430941,-0.0011475875222313192,-0.0003258383145614552,-0.016067189786245533,-0.009493055986299882,0.003074580674361049,0.04002555842929441,-0.01650112879597482,0.0038668429823549796,-0.015305486286451946,-0.01789071904783623,-0.00653501741289075,0.9997014343337214
0,380000000,0.3589353667710412,-0.31367544956200827,9.676751975334023,0.0050940891042894135,-0.027483113030069846,-0.11155459291521179,0.004712928096921587,-0.0012443599741587263,-0.00029986082772737177,-0.01620930454537891,-0.009837918085158968,0.002079410664336012,0.03778685904559523,-0.015319356956801582,0.006392057533514817,-0.015111525904145596,-0.01797477430770465,-0.006500284857900692,0.9997031037113977
0,390000000,0.395173355073818,-0.2956771493729532,9.656003899793435,0.04087297387822423,-0.013994892286479588,-0.1314876111656196,0.004551700231871791,-0.0013438859171159834,-0.00028499737852838436,-0.01597663698520502,-0.010044790138773626,0.0008600574783568456,0.03486771304669159,-0.013317114458671347,0.009255406548615341,-0.014930068376859243,-0.018050796464034895,-0.006452596714990312,0.9997047693198777
0,400000000,0.4279603732177104,-0.2788329294625827,9.640305826304553,0.0732531643385752,-0.0011282391045942756,-0.14645003072601728,0.0043945313418021215,-0.0014448165290357196,-0.00028324126879031297,-0.015403174048859707,-0.01011988782276091,-0.0005337728966763489,0.031268233153957596,-0.010494225550867623,0.012456689474761275,-0.014764411433962402,-0.018114636011398445,-0.006390400308463754,0.9997064743718932
0,410000000,0.457239606720758,-0.2631825166225952,9.629665423923743,0.10223466048534216,0.011116846515586028,-0.15644185159640467,0.004244659445646448,-0.001545865144588987,-0.00029608874046793687,-0.0145229026794788,-0.01006942681273786,-0.002052374473863459,0.02767340923187438,-0.007431544559604208,0.015569157209590002,-0.014616743826901495,-0.018163124743019253,-0.00631281124785212,0.9997082574999655
0,420000000,0.4830295550357429,-0.24867547852510516,9.624089123723104,0.12781746231852548,0.02274036457406147,-0.16146307377678198,0.00410498269314985,-0.0016458072552296699,-0.0003245389756521,-0.013369809820198145,-0.009899622784321539,-0.003646041266304402,0.024768087381585334,-0.00471021531215533,0.01816621550119413,-0.014484809252112454,-0.01819701486241225,-0.006221597676115421,0.9997101333253473
0,430000000,0.5053664159657092,-0.23523886090888485,9.623581697407744,0.15000156983812493,0.033742315070831974,-0.16151369726714906,0.003978059364413866,-0.0017434805091376404,-0.00036909409655638825,-0.011977882414153571,-0.009616691413128983,-0.005265067287099067,0.022552178721613948,-0.002330489228963657,0.020247912095081366,-0.014365241270987037,-0.018218040875895708,-0.006119185848771292,0.9997121077562374
0,440000000,0.5242852003791041,-0.22279962460135153,9.628146543096094,0.16878698304414058,0.04412269800589754,-0.15659372206750605,0.0038661078702943996,-0.0018377847112720502,-0.0004297591655326727,-0.010381107404480927,-0.009226848374777252,-0.006859746549347355,0.02102559946246766,-0.0002926206237052148,0.021814303655719108,-0.01425467426813874,-0.01822793888555696,-0.0060079976243599936,0.9997141843897381
0,450000000,0.5398199601777228,-0.21128447139580323,9.637785874468742,0.18417370193657234,0.05388151337925815,-0.14670314817785277,0.003771006751890127,-0.001927681823326921,-0.0005060421850582308,-0.008613471734316036,-0.008736309344883382,-0.008380373066149156,0.02018827087957793,0.0014031332987759983,0.02286545573686884,-0.014149742535273563,-0.018228445368059565,-0.005890451643595373,0.999716365348234
0,460000000,0.5511387238705527,-0.20174140705992727,9.65161752653511,0.1953170316065344,0.06188154619503901,-0.1327254979391041,0.003694287642161953,-0.0020122054405664613,-0.0005969614604293128,-0.00671177799565191,-0.008155080714587629,-0.009780185924196393,0.020040119295173808,0.002756512443260444,0.023401442765811922,-0.01404707952261752,-0.018221296288811088,-0.005768964275858611,0.9997186519064374
0,470000000,0.5574080696781926,-0.1952177285608179,9.668759302562554,0.2013722761381855,0.06698558010169875,-0.1155442947454159,0.0036370578348510207,-0.002090565036503733,-0.0007011265893175356,-0.004724091385979726,-0.007508331750679675,-0.011024204515081432,0.020581076069617094,0.0037672538246904894,0.02342234804149658,-0.0139433172575156,-0.018208226550806946,-0.005645950332739252,0.9997210449093142
0,480000000,0.5586591929784785,-0.19163823798455693,9.689212149430594,0.20233943553152586,0.06919361509923738,-0.09515953859678816,0.0035999228544767448,-0.002162250207762284,-0.0008168194514075466,-0.0027012927566825756,-0.006825022442250726,-0.012080393309254905,0.021811077602724598,0.004435091569468267,0.022928263746639598,-0.013835085929777415,-0.018190969777802865,-0.005523823548455522,0.9997235449809434
0,490000000,0.5549233723243391,-0.19092704760702667,9.712976724878473,0.19821850978655528,0.06850565118765485,-0.07157122949322087,0.003582979416961507,-0.0022270401508333038,-0.0009420015710825957,-0.0006942629591435755,-0.0061341127783919955,-0.0129167167771674,0.023730065345611305,0.004759756918540163,0.0219192909738065,-0.013719013643337557,-0.01817125843171641,-0.0054049968270400385,0.9997261525242608
0,500000000,0.5462322343676312,-0.19300760720824323,9.74005376864117,0.18900949890327384,0.06492168836695116,-0.044779367434714105,0.0035858154297159217,-0.002285003662109375,-0.0010743141174316406,0.0012461171552541638,-0.005464562748194699,-0.013501139389269527,0.02633798582357386,0.004740978233278457,0.020395539765509476,-0.013591726333840213,-0.01815082426428525,-0.00529188225609516,0.9997288675115772
0,510000000,0.5326161889338662,-0.1978238119709981,9.770444139936945,0.1747124028816814,0.05844172663712631,-0.014783952421267801,0.0036075099916104136,-0.0023364991378738154,-0.001211077904250235,0.0030689667351275337,-0.004845332340750043,-0.013801625616011884,0.029005725702912762,0.0044277240061787095,0.018692191563214836,-0.013450885976625637,-0.018131308192825355,-0.005186388529258279,0.9997316793538574
0,520000000,0.5140990692036911,-0.2054036735541542,9.804148045121329,0.15532722172177812,0.04906576599818029,0.018415015547117997,0.0036466333931173267,-0.002382174574295348,-0.001349293390035644,0.004723404929093425,-0.004305381545149241,-0.013786139927845083,0.03110416882661977,0.003869247203044248,0.017144379182578145,-0.013298305517855748,-0.01811398898286391,-0.0050884133429020175,0.9997345380265374
0,530000000,0.49070352355816826,-0.2157968355078059,9.84116593685529,0.13085395542356393,0.03679380645011312,0.054817536470443316,0.003701247116111972,-0.0024229675674476425,-0.0014856406779921727,0.006158550885768729,-0.0038736703504835073,-0.013422646795219727,0.03263326483730218,0.0030656966045587413,0.015752152669938152,-0.013136835298117223,-0.018100056948823922,-0.004997349937021381,0.9997373845117559
0,540000000,0.4624528566239148,-0.2290536968077359,9.881498783551459,0.10129260398703883,0.021625847992924774,0.09442361034870814,0.003768903833844206,-0.0024601053132720097,-0.0016164795160267253,0.007323523753770335,-0.0035791587458440495,-0.012679110688586417,0.03359296807346875,0.002017215476903851,0.014515570328462558,-0.012969325151505269,-0.018090704481826772,-0.004912589322119008,0.9997401609831517
0,550000000,0.4293710678884731,-0.24522552238177467,9.92514802601016,0.0666431674122028,0.0035618906266152786,0.13723323718191247,0.0038466474113647564,-0.0024951046076289174,-0.0017378492967523584,0.008167442681715138,-0.0034508067203220818,-0.011523496078395765,0.03398323756339829,0.0007239415720659325,0.013434698713002147,-0.012798624511117063,-0.018087125565350925,-0.004833520324502272,0.9997428110172532
0,560000000,0.39595935393688003,-0.26100919657877775,9.964619428854144,0.03168142458391725,-0.014268344263186704,0.17583794346392775,0.003931052702938587,-0.0025297457652904143,-0.0018455307946165789,0.008655346062192322,-0.0035071418708264475,-0.009948462317346835,0.03380403702222815,-0.0008139928729512535,0.012509612631109964,-0.012627582483800255,-0.018090515364652015,-0.004759529768712151,0.9997452797042039
0,570000000,0.3667208223469771,-0.27311488355290364,9.992414303741711,0.0011831771597659614,-0.028735120367155646,0.20282922036221818,0.004018663332743699,-0.0025657857285601438,-0.0019357252767124855,0.008815949491407286,-0.0037249620762996893,-0.008045448640396347,0.03305533485239818,-0.002596461138642529,0.01174039514972616,-0.012459047894032281,-0.018102069890317245,-0.004690002797178656,0.9997475136578349
0,580000000,0.34168196417498675,-0.28161445282467074,10.008527578623351,-0.02485157486024493,-0.03983843768528742,0.21820706787677377,0.004106429476109952,-0.0026046711750424834,-0.0020057336153507244,0.008693887923401438,-0.0040706327488834355,-0.005930589341381604,0.0317371041475849,-0.004623342027881218,0.011127137607032392,-0.012295869296887484,-0.01812298573630525,-0.004624323327123976,0.9997494609250868
0,590000000,0.3208679070132869,-0.2865792183316167,10.012953978610502,-0.046422831476115034,-0.04757829621758185,0.22197148600759414,0.00419174765775665,-0.0026475124364679914,-0.002054018025779758,0.008333796312216188,-0.0045105193007193125,-0.003720018714139985,0.02984932270026464,-0.0068945198737890906,0.010669939628971668,-0.012140894960112903,-0.018154459892755503,-0.004561874644686487,0.9997510707947734
0,600000000,0.3043021878836943,-0.28807933577167455,10.005688124300963,-0.0635305926878444,-0.05195469596403895,0.21412247475467952,0.004272460752048346,-0.002695083498693407,-0.0020802020661849774,0.007780309611892939,-0.005010987143948949,-0.0015298710525088331,0.027391973013040995,-0.00940988455123681,0.010368909149938347,-0.011996972815406239,-0.01819768963375067,-0.004502040136192586,0.9997522935056825
0,610000000,0.29199294524985603,-0.2861672840423777,9.986725478488557,-0.07617485849543301,-0.05296763692465869,0.19466003411802968,0.004346857982852725,-0.0027478220016909916,-0.002085070637694031,0.007078062776473101,-0.005538401690713968,0.00052371934967449,0.024840084508249177,-0.01175837926179603,0.010119382815203238,-0.011866152466995347,-0.018253196290372375,-0.004444327075813189,0.9997531011243018
0,620000000,0.28389228142822104,-0.2808299211344747,9.956064839477055,-0.08435562889888089,-0.0506171190994411,0.16358416409764467,0.004413674923654298,-0.0028058292395591877,-0.002070569984369275,0.006271690759998081,-0.0060591283531560005,0.002324618198572645,0.022668735693360562,-0.013529048826108463,0.0098164936667032,-0.01174729207455197,-0.018318796256328748,-0.0043887367983829655,0.9997535505423069
0,630000000,0.2799377511077591,-0.2720368027580562,9.913705607811773,-0.08807290389818795,-0.04490314248838615,0.12089486469352444,0.004472093497327023,-0.002868870160515513,-0.0020398076932135467,0.005405828516509284,-0.006539532543416668,0.0037566912003482735,0.020877977395002138,-0.014721943910479107,0.0094600563401704,-0.011638453312430692,-0.018391628857196116,-0.004335396764472892,0.9997537190365275
0,640000000,0.2800666359684949,-0.25975657273987823,9.859647002281061,-0.08732668349335428,-0.035825707091493866,0.06659213590566909,0.004521741976418525,-0.002936373366898337,-0.001997052694166168,0.004525111000048123,-0.0069459796736376,0.004703804061164021,0.019467857697689578,-0.015337112924450712,0.009049891281598058,-0.011537699392322983,-0.01846883249451949,-0.004284436894499825,0.999753683323807
0,650000000,0.28421660051475545,-0.24395738744406256,9.793888164743027,-0.08211696768437986,-0.02338481290876424,0.0006759777340785977,0.0045626949829227215,-0.003007431115161552,-0.0019477352601064979,0.0036741731646560004,-0.007244835155960422,0.005049822487182537,0.018438421938504135,-0.01537460200665873,0.008585824742054528,-0.01144309495786735,-0.01854754470803929,-0.004235988826152916,0.9997535199046579
0,660000000,0.28958327392402095,-0.22840396436887644,9.729386130674936,-0.07569882644498428,-0.011064382282215707,-0.06392642846381563,0.004595446362969824,-0.003080828348551279,-0.001898339280468786,0.002886799737595839,-0.007414077470078225,0.004721702763407245,0.017789712708960116,-0.014834455015522418,0.008067688775798179,-0.01135270595882877,-0.018624902247875653,-0.004190185392490352,0.999753305285882
0,670000000,0.29337021515147665,-0.21685140360512808,9.6791023315582,-0.07132733750958449,-0.0023483458601910017,-0.11428787050975708,0.0046206108048352235,-0.0031553620567823515,-0.0018552172689760837,0.0021533744614096583,-0.007478137448953154,0.0038187637984127497,0.01752176986365961,-0.013716713524528612,0.007495321241408476,-0.011264599504817603,-0.018698041156985624,-0.00414716032061847,0.999753116082247
0,680000000,0.2955281010262174,-0.2092542041144064,9.643042250402864,-0.06900250087818162,0.0027632963573086143,-0.15040834840374123,0.004638625457630496,-0.003230160636217505,-0.0018234053698331643,0.0014534308130574913,-0.007473059034630461,0.0024834152337186257,0.017634630535328513,-0.012021416821867309,0.00686856580564825,-0.011176843698561603,-0.018764096864123364,-0.004107048150884871,0.9997530289973109
0,690000000,0.2960075365656409,-0.2055676303003033,9.621211138224195,-0.0687243165507757,0.004270544370283163,-0.17228786214576783,0.004649722804799694,-0.0033047129226346783,-0.0018065156308280095,0.0007665022694993758,-0.007434886169155399,0.000858066710844467,0.01812832915582819,-0.009748601914178126,0.006187271949771408,-0.011087507448786518,-0.018820204287480817,-0.00406998437653883,0.9997531206834641
0,700000000,0.2947582526905702,-0.2057471803565154,9.613614069131023,-0.07049278452736671,0.002173398178732671,-0.17992641173583754,0.00465393066488673,-0.0033788681912323426,-0.0018067360033380275,7.212230769532716e-05,-0.007399662794573214,-0.0009148721286901927,0.019002897482736314,-0.006898303534166822,0.005451294977993192,-0.010994660262717308,-0.018863497949199042,-0.004036105803815342,0.9997534674812427
0,710000000,0.29174514980702937,-0.20975529365917261,9.620255321987944,-0.07430790480795464,-0.0035281422173428917,-0.17332399717394975,0.004651072191109051,-0.003452836156631278,-0.0018248303423189505,-0.0006501755953946159,-0.007403432852929159,-0.0026929916433657605,0.020036087857501227,-0.003998387397105152,0.004774759175759145,-0.010896749165365432,-0.018891989166635342,-0.004005391553091476,0.9997541249934713
0,720000000,0.28699829873951765,-0.2175826485341262,9.641136441077185,-0.08016967739253955,-0.012834076817943525,-0.15248061846010483,0.004640765871471331,-0.0035271869728799032,-0.0018601384063172688,-0.0014208579628104234,-0.00748224028626849,-0.004333882191662667,0.021005623547348844,-0.0015766696763153075,0.004271946889008492,-0.010793729468252805,-0.018907197256799655,-0.003977183726571635,0.9997550676569055
0,730000000,0.2805627008418569,-0.22922637642486932,9.676258329005321,-0.08807810228112138,-0.02574440562306925,-0.11739627559430249,0.004622425528594931,-0.0036028512334169704,-0.0019105758574595733,-0.002260391317592065,-0.007672129036636449,-0.005695134132061338,0.021911487776163315,0.0003668881750801875,0.00394295801735478,-0.010685932613661542,-0.01891151817604298,-0.0039506640645466965,0.9997562490816961
0,740000000,0.27248205052628893,-0.2446828827997615,9.725621976506133,-0.09803317947370016,-0.042259128632720036,-0.06807096857654285,0.004595260320087391,-0.003681119971140845,-0.0019726342614605485,-0.0031892421827795095,-0.008009143046078294,-0.0066343378230421975,0.022753661965013453,0.0018323260981186402,0.0037878955434130137,-0.010573689206220321,-0.0189073473513578,-0.003925012929301284,0.9997576224196594
0,750000000,0.2627993484159266,-0.263947909532479,9.789228516762572,-0.11003490897027587,-0.062378245846895906,-0.004504697406825825,0.0045582747381729405,-0.003763644658343779,-0.0020413810876172,-0.004227877081412726,-0.008529326256639267,-0.007009083623085671,0.02353212572378326,0.002819685432210597,0.003806865529625593,-0.010457329245988198,-0.018897079597836996,-0.003899409024434737,0.9997591406218671
0,760000000,0.2546995924256781,-0.28155730144466906,9.85320952636042,-0.12037860800130869,-0.08094905595030479,0.05945437678042755,0.004510299482291202,-0.0038523942675734446,-0.002110575110157331,-0.005384413593966552,-0.009251546939313656,-0.006723122427786926,0.024246856846326003,0.003329008919247916,0.003999977115666541,-0.010337182279945054,-0.018883109046151834,-0.003873029144927039,0.9997607566315577
0,770000000,0.2513711011555346,-0.29206052702232965,9.9036918867767,-0.12535959379725867,-0.09281885762765459,0.1099580928507963,0.004450331054840717,-0.003949182940656826,-0.002173935823001738,-0.006617573530655293,-0.010125970680891834,-0.005864847281200068,0.024897831309342845,0.0033603407076195375,0.00436734251653192,-0.010213577471788136,-0.018867829080022665,-0.003845047957882273,0.9997624235123245
0,780000000,0.2528626184826799,-0.29547386429364175,9.940669699313005,-0.12497786635812592,-0.09798765087894529,0.14700645080428051,0.0043778713573772166,-0.004055197657772069,-0.0022264128545472772,-0.007873729759128117,-0.011085587397113216,-0.0045688117644939455,0.025485023275185238,0.00291372635614989,0.004909077021432808,-0.010086843589937866,-0.018853632283691413,-0.0038146378138877875,0.9997640945115265
0,790000000,0.2592236893636011,-0.29181433787881766,9.964136748212482,-0.11923342568391038,-0.09645543570417689,0.17059945064088,0.004292958562473359,-0.0041709552982354126,-0.0022643013689953584,-0.009099255147034203,-0.01206338700371721,-0.002969569458837403,0.02600840509878234,0.0019892128379728788,0.0056252989935970344,-0.009957308913592635,-0.018842910399405745,-0.003780968588951528,0.9997657230588618
0,800000000,0.27050413628602515,-0.2810997188041009,9.974086314872121,-0.10812627177461208,-0.08822221210334949,0.18073709236059504,0.004196167114344007,-0.0042963026405349325,-0.002285242066364379,-0.01024052256202272,-0.012992359416443227,-0.0012016739453992913,0.02646794733889267,0.000586848544356052,0.006516129871096196,-0.009825301056693991,-0.01883805429493436,-0.0037432075569596985,0.9997672627000306
0,810000000,0.2867406859007164,-0.26335293991805686,9.97051124248248,-0.09165640463023098,-0.07328798007646296,0.17741937596342544,0.00408860772822095,-0.004430416362300349,-0.002288221182480843,-0.011243904871742838,-0.013805494551030672,0.0006003211946515495,0.026728348594779665,-0.0009044647445955624,0.007497110382705687,-0.009691368336309505,-0.01884080217200939,-0.0037006665571479194,0.9997686765548909
0,820000000,0.30791801984347794,-0.23861522766935764,9.95340481346462,-0.06982382425076737,-0.05165273962351766,0.16064630144937148,0.003971927391035024,-0.004571803040349209,-0.002273570488987353,-0.012055774943843725,-0.014435782323218953,0.002301862380146252,0.02665434186233853,-0.002095839211160449,0.008483646227118726,-0.009556944846616854,-0.018850284710372357,-0.003653245174475681,0.9997699662278478
0,830000000,0.3340074322615602,-0.2069324567831176,9.922760598403906,-0.04262853063622081,-0.023316490744513085,0.13041786881843287,0.0038483093606487273,-0.0047182991506158345,-0.0022429672933310663,-0.01262250564597457,-0.014816212648747489,0.0037683960299160118,0.02624595119619323,-0.0029872466746150962,0.009475662356881577,-0.00942368636493024,-0.01886498127826227,-0.0036009915657990305,0.9997711435505674
0,840000000,0.3649800699764976,-0.1683502783916041,9.878572632449805,-0.010070523786591429,0.0117207665605506,0.08673407807060961,0.003720473166481497,-0.004867071068220596,-0.002199434438778347,-0.012890469845784534,-0.014879775443355687,0.004865368562791963,0.02550320367781393,-0.0035786556896291962,0.010473087920838167,-0.00929324898510747,-0.01888337197963513,-0.0035439557290438857,0.9997722211402805
0,850000000,0.4008073394803619,-0.12291366829532441,9.820835793383509,0.027850196298118482,0.053459032291670594,0.029594929205906013,0.0035916746091402274,-0.005014615067429062,-0.00214734030440189,-0.012806040410922787,-0.014559460622782943,0.005458226397605255,0.024426129414842235,-0.003870031545146364,0.01147585626429325,-0.0091672892705492,-0.01890393781574345,-0.003482189591674982,0.9997732124327678
0,860000000,0.4356325484455336,-0.07866797447047442,9.761575319921413,0.0648013177028893,0.09414815904189094,-0.029060740781148082,0.0034656529914514067,-0.005156821906314946,-0.0020922993146630375,-0.012336697928003102,-0.013814091942856726,0.005452212100222528,0.02301476154212041,-0.0038613362620107394,0.012483904930469268,-0.009047464402699426,-0.018925160844431254,-0.0034157469983056854,0.9997741316654166
0,870000000,0.4635977324376576,-0.04364324915188912,9.712825977029782,0.09445054361008472,0.12603801788201663,-0.07729412336038159,0.00334605065637561,-0.0052896872565249,-0.0020400775466065113,-0.011534353708523582,-0.012705828334978773,0.004911752540008361,0.021269136224281407,-0.003552528589510571,0.013497175663483815,-0.008935432324951144,-0.018945524336940585,-0.003344683597487761,0.9997749938103059
0,880000000,0.48467275818438776,-0.01786071739423027,9.674597734567572,0.1167978740197048,0.1491286088120477,-0.11510521853179453,0.0032358325265420262,-0.0054100221321853326,-0.0019954983384922187,-0.01047202670745999,-0.011322662478250037,0.003941070591040964,0.01918929265975449,-0.002943564000999121,0.014515614413084726,-0.008832851881853879,-0.018963512932044853,-0.003269056627751922,0.9997758144572582
0,890000000,0.498827168481903,-0.0013418050599883545,9.646900021245887,0.13184330893174948,0.1634199318319841,-0.14249402629538688,0.0031372333349395376,-0.005515517474192322,-0.0019623427998345377,-0.00922273587978807,-0.009752587051771462,0.0026443891273985358,0.016775273086042514,-0.0020343946887650876,0.01553917134137416,-0.008741382953536242,-0.01897761278735651,-0.0031889246029532846,0.9997766096467898
0,900000000,0.5060298600552694,0.005891513111367159,9.629741209915515,0.13958684834621873,0.1689119869418259,-0.15946054665115864,0.003051757625172513,-0.0056047441502453665,-0.0019433498114120873,-0.007859500180483581,-0.008083594734644,0.0011259310231592906,0.014027122786129411,-0.000824969558312365,0.016567800831757223,-0.008662686585261717,-0.01898631172770855,-0.0031043468969960877,0.9997773956528757
0,910000000,0.5062611939978178,0.0038368258582492016,9.62312743908083,0.1400284922631127,0.16560477414157304,-0.1660047795991098,0.002980179751119749,-0.005677152954849163,-0.0019402160252610656,-0.006455338564522278,-0.006403678205968591,-0.0005100808475985714,0.011572516022774076,0.0002971128971021781,0.017406778640847675,-0.008597389429214494,-0.018988752029013605,-0.003015653695416425,0.9997781844110084
0,920000000,0.499550087979705,-0.007427659685096119,9.62706036691155,0.1331682406824312,0.15349829343122554,-0.16212672513924042,0.002922543877133421,-0.005733074609265643,-0.00195359586467303,-0.005083269986879912,-0.004800830144846186,-0.00215942361079684,0.010039034931936561,0.0009440853463774086,0.017861449380024392,-0.008541975854239311,-0.018986687164437487,-0.002924256309390925,0.9997789701149261
0,930000000,0.48593712768287717,-0.027804335656685386,9.641539855623746,0.11900609360417433,0.1325925448107834,-0.14782638327155043,0.0028781639780959267,-0.0057737197615690405,-0.001983101524204667,-0.0038163134025322376,-0.0033630432303777278,-0.003717874392357313,0.009426598080812174,0.0011157438505633103,0.017931870127510224,-0.008491893186783684,-0.01898252144035817,-0.002831834991018219,0.9997797419134148
0,940000000,0.4654629563909046,-0.05719599542263098,9.666565786537397,0.09754205102834235,0.10288752828024698,-0.12310375399604023,0.0028456238392209343,-0.005801178986622801,-0.002027302969667577,-0.0027274877664550186,-0.0021783101416641753,-0.005081210318201769,0.00973512431106329,0.0008118862017684411,0.017618096653845908,-0.008442586962329022,-0.01897865664508473,-0.0027400689248436205,0.9997804885771768
0,950000000,0.43816912389168183,-0.09550512659380843,9.702139222418676,0.06877611295494411,0.06438324383962614,-0.08795883731272057,0.002822777056394443,-0.0058184227860813564,-0.0020837279381353824,-0.0018898120336239852,-0.001334623557806448,-0.006145208514252035,0.010964532742011424,3.231192262116698e-05,0.01692018342441349,-0.00838950088995093,-0.018977491920570067,-0.002650636455635562,0.9997811986637888
0,960000000,0.41031068408081006,-0.13507421198218597,9.740097035211512,0.03926216194120197,0.024476376569281116,-0.05043849472299111,0.0028068016515021554,-0.005829239949202147,-0.0021489289952785207,-0.0013544588577812826,-0.0008953205115790861,-0.006832469010076686,0.013114742780720057,-0.0012231777329442402,0.015838183616901556,-0.008328076974627755,-0.018981423952585678,-0.0025652148792465065,0.9997818603831838
0,970000000,0.38814916233555335,-0.16825256800021232,9.772274693212994,0.015554049293093246,-0.009436423720455382,-0.0185895493579512,0.0027948008448390738,-0.005837559524108471,-0.002219221163537899,-0.001085216000247834,-0.0008251158031521307,-0.0071728830661274895,0.01618567413881741,-0.0029547797777092215,0.014372149153511518,-0.008253755796911727,-0.018992847479215102,-0.002485479796757058,0.9997824611634554
0,980000000,0.3717371696987528,-0.1949519604943674,9.798672792043908,-0.0023482249893820063,-0.03735515702958332,0.0075879987823990885,0.002784403825046411,-0.005846772790823351,-0.0022914195483760835,-0.0010240250773673057,-0.001064068762719498,-0.007223164654651343,0.020177246855912444,-0.005162689488118047,0.012522130747701376,-0.008161976949586251,-0.019014156117320574,-0.0024131040319582474,0.9997829869168366
0,990000000,0.3611270614490239,-0.21508405289755053,9.819291392798856,-0.014444660906223842,-0.059279823358102765,0.02809414969805981,0.002773820364780022,-0.005859671622687301,-0.0023629063949801576,-0.001112827705483363,-0.0015522387204751024,-0.007040027747895141,0.025089381329461303,-0.007847100400262649,0.01028817796526101,-0.008048179630932382,-0.01904774350620947,-0.0023497561120474257,0.9997834210058515
1,0,0.35637041084369375,-0.22856071659877955,9.834129147255547,-0.020735258457432203,-0.07521042270601366,0.0429289033890309,0.002761840820397765,-0.005878448486331678,-0.002431631088257724,-0.001293565500939671,-0.002229685006612859,-0.006680186318105781,0.030921998350944304,-0.01100820430500763,0.007670339299510965,-0.007907803394207566,-0.019096004767111364,-0.00229709831106149,0.9997837429098166
1,10000000,0.3574977087902016,-0.23533244837883024,9.843182220032187,-0.021220017643007114,-0.08514695507331599,0.05209225985531243,0.0027478361321584543,-0.005904696441682233,-0.00249611015283957,-0.0015081800800798959,-0.003036466951326681,-0.006200354337530155,0.03653219049783108,-0.014055949742514279,0.005182000265354086,-0.007738173619133021,-0.019160348423233876,-0.002256030660037867,0.999783932678957
1,20000000,0.3644584348676675,-0.2355031857205019,9.846442926232978,-0.015898938462948577,-0.08908942046000981,0.055584219096904336,0.002731757824108172,-0.005939409141985763,-0.002555427253078779,-0.0016986130592477025,-0.003912643884810485,-0.005657245778415162,0.040777187146415574,-0.016399954896995344,0.003336470741698759,-0.007544155801000655,-0.019238227226620493,-0.0022244329508892425,0.999783990782246
1,30000000,0.3771802985645351,-0.22921628547212644,9.843900601459877,-0.004772020917256592,-0.08703781886609509,0.053404781113806664,0.0027141380042223773,-0.005982980833776352,-0.002609233193052951,-0.0018068060547867563,-0.004798275137258184,-0.0051075746130076986,0.04365711617017498,-0.018039913173942736,0.002133686473842104,-0.007332501023193631,-0.01932610474378925,-0.0021994352593437227,0.999783925950361
1,40000000,0.3955897451079474,-0.216616081507301,9.835543013572089,0.012160734994068813,-0.07899215029157183,0.0455539459060194,0.0026960893642637984,-0.006035206356894918,-0.0026577459165588735,-0.001774700683040723,-0.005633420038863692,-0.00460805481355466,0.045172107505481014,-0.018975515927886315,0.0015735851019631375,-0.0071099601951321026,-0.01942044269587047,-0.002178175652789463,0.9997837518295372
1,50000000,0.419612772850436,-0.19784746204586695,9.82135764020107,0.03489932927102769,-0.06495241473644003,0.03203171347354254,0.0026793051796971667,-0.0060952811444803245,-0.0027017505071178505,-0.0015442385603532689,-0.006358137919820926,-0.004215400352302942,0.04532229313797007,-0.0192064524635016,0.0016561061272984143,-0.006883283229227681,-0.01951769939329642,-0.0021578023140814083,0.9997834884171435
1,60000000,0.44384050232512456,-0.17729280900810224,9.805516438061584,0.057931491255491886,-0.0490816002545364,0.016863790822580407,0.002666013374692966,-0.0061618359144741675,-0.0027425656404953536,-0.001075735516691356,-0.006926364720627694,-0.003972906194142149,0.044107807105096604,-0.0187324100364395,0.0023811909122869387,-0.006659218616308331,-0.01961432897326477,-0.0021354747116067996,0.9997831628178707
1,70000000,0.46286772986180447,-0.15932638060942214,9.79220473037712,0.07574492400473944,-0.03554271475040107,0.00407590415543275,0.0026584712293242774,-0.006233318277232058,-0.002781674561156411,-0.0004030044993608444,-0.0073475430215042365,-0.003870191082571934,0.0415287855148751,-0.017553073854317994,0.003748782715177631,-0.006444513398742094,-0.019706781435791097,-0.0021083638137240138,0.9997828093213667
1,80000000,0.4766265286625531,-0.1440807778740324,9.781431282902359,0.08833962751876247,-0.024335758224039956,-0.0063319465278947,0.0026584600869625774,-0.006308374344204282,-0.002820356057768869,0.00042176719928601865,-0.007644992112228296,-0.003883454657754093,0.03758536658081782,-0.015668127078311007,0.005758826759591293,-0.006245913540443796,-0.019791503473708255,-0.0020736513455120492,0.9997824688022854
1,90000000,0.48504918576449974,-0.13168830380327723,9.773205250650197,0.09571560179756107,-0.01546073067545304,-0.014359761227401967,0.0026672394179740877,-0.006385883419742555,-0.002859650915402412,0.0013463922868969904,-0.007842031282577619,-0.003988896559850429,0.03227769067307002,-0.013077250825785628,0.008411270339532765,-0.006070164692841149,-0.01986494009220229,-0.0020285280859732853,0.9997821874436148
1,100000000,0.48806784211279997,-0.12228097160479556,9.767535425201176,0.09787284684113515,-0.008917632104640347,-0.02000753994308902,0.0026855468196913534,-0.006464958001085819,-0.0029003619155227867,0.0023186834711198265,-0.007961979822329938,-0.004162716429022733,0.025605900385732735,-0.009780124174464496,0.011706062960353583,-0.0059240133557608215,-0.019923537014433657,-0.001970191204456143,0.9997820147838293
1,110000000,0.48563550383467297,-0.11594846830619233,9.764428895421586,0.09481136264948477,-0.0047064625116018605,-0.02327528267495588,0.0027135980166974605,-0.0065449437783833275,-0.0029430538360055714,0.00328645345960228,-0.008028157021263005,-0.004381113905432808,0.018829265271786504,-0.006425480929810103,0.014987865747141052,-0.005812134532554289,-0.019964831062203956,-0.0018968132266994093,0.9997819895919391
1,120000000,0.4777897814311867,-0.1126122046708465,9.763888585315565,0.08653114922260988,-0.0028272218963375905,-0.02416298942300254,0.0027510868605986616,-0.006625419634673335,-0.002988053451123296,0.004197514959992107,-0.008063882169154556,-0.00462028862924245,0.013206882453011071,-0.003662476507601565,0.01760139114070295,-0.005730910677391569,-0.01999071393332299,-0.00181045323688284,0.9997821013992604
1,130000000,0.4645886506079537,-0.11215177719395931,9.765914849350702,0.07303220656051085,-0.0032799102588474977,-0.02267066018722906,0.0027971853299391114,-0.006706197645893752,-0.003035449531549439,0.004999680679937047,-0.008092474555782336,-0.004856440240613453,0.008738621789805499,-0.0014914060097526826,0.01954667579338534,-0.005674651688039963,-0.02000416834937339,-0.001714134344940813,0.9997823229685133
1,140000000,0.4460893729975099,-0.11444711390201505,9.770506628170153,0.054314534663187135,-0.006064527599131599,-0.018798294967635378,0.0028505435305987703,-0.006787323080885699,-0.0030850928443606485,0.005640763327084891,-0.008137253470924087,-0.005065768379707625,0.005424356059864717,8.744290814820835e-05,0.020823755006369807,-0.00563766722545911,-0.020008177730221732,-0.001610873346353221,0.9997826236833849
1,150000000,0.4223488330237285,-0.11937853281015523,9.777662090613987,0.03037813353063891,-0.011181073917189912,-0.0125458937642215,0.0029092896953102354,-0.006869074401375741,-0.0031365961530362974,0.006068575609083375,-0.008221538204357549,-0.00522447268668676,0.0032639609354295565,0.00107379003949469,0.02143266266884703,-0.005614265563476898,-0.02000572381043883,-0.0015036832834356831,0.9997829714360944
1,160000000,0.3976950855833451,-0.12505498902256904,9.785955753798037,0.005552285460881189,-0.016882778125987433,-0.005184315639299814,0.002971066261039823,-0.0069519487056801665,-0.003189344807871919,0.006245361122964571,-0.008362825496393484,-0.0053129889834372095,0.0022573149752736377,0.001467362626419218,0.021373431225725093,-0.005598752796521261,-0.01999978496672291,-0.0013955753286122312,0.9997833339968768
1,170000000,0.37645809227391874,-0.12958963423419342,9.793962658474523,-0.01583366531691403,-0.02142284415061653,0.002015562164951249,0.0030334267211173938,-0.007036501607473156,-0.003242613241773107,0.006191087642607727,-0.008555321639596663,-0.005328698000541713,0.002404299630758076,0.0012678953566831748,0.02064609167266517,-0.005585432404449206,-0.019993335255098957,-0.0012895599893301677,0.9997836798654329
1,180000000,0.358697671916469,-0.13286954459325048,9.801682156859025,-0.03377971880269136,-0.02480127199105488,0.009053739648515441,0.0030942324804925647,-0.007123187113366569,-0.003295681466960687,0.005940154140933016,-0.008787410252125179,-0.005273216741207141,0.0037047992652737816,0.00047513035773275226,0.01925067357724231,-0.005568605173431742,-0.01998934415768622,-0.001188647634906772,0.9997839786040622
1,190000000,0.3444738964396238,-0.13478176963260577,9.809114084968977,-0.04828587499645081,-0.027018061647302475,0.015930216811392756,0.0031516889337126486,-0.0072123430661381605,-0.003347845665685689,0.005526959590860622,-0.009047474952137122,-0.00514816220864036,0.006158701186393308,-0.0009111828120435479,0.017187205125028287,-0.005542569471797941,-0.019990777039335755,-0.0010958483459195712,0.999784200652029
1,200000000,0.33384698311007827,-0.13521312958028772,9.816258403989696,-0.05935213389819241,-0.028073213119359328,0.022644993653583204,0.0032043454653774006,-0.007304191144759997,-0.0033984181902337873,0.004985902965310727,-0.009323899357790592,-0.004955151406048241,0.009765895690053272,-0.0028912871748214045,0.014455713189393812,-0.005501621879865609,-0.020000596314524076,-0.0010141710867866754,0.9997843166207205
1,210000000,0.32686254112881075,-0.13408119397803595,9.823114886430288,-0.06697849550791608,-0.02796672640722542,0.029198070175086764,0.003251095449428476,-0.0073988368643789215,-0.003446727562918195,0.004351383237203501,-0.009605067087243676,-0.004695801336637652,0.013595850522916684,-0.00502742025709506,0.011717380063460037,-0.005441587182797477,-0.02002103502732153,-0.0009456096895164039,0.9997843032913059
1,220000000,0.3235074793284059,-0.1314277222458087,9.82968293940016,-0.0711649598256219,-0.02669860151090076,0.03558944637590346,0.0032911762496894426,-0.0074962695763147735,-0.0034921184760872137,0.003657799379459128,-0.009879361758654465,-0.004371729003615462,0.016718130227005003,-0.006881539281081659,0.009633380800935247,-0.005364406936705207,-0.020051414457256844,-0.0008881048459581319,0.999784164300607
1,230000000,0.3237538034531811,-0.12732524945722234,9.83596134777977,-0.07191152685130986,-0.024268838430385353,0.04181912225603329,0.0033241692198373585,-0.00759636246808526,-0.0035339517921229024,0.002939550364997788,-0.010135166990181056,-0.003984551410188539,0.01913280389622646,-0.008453469531359583,0.00820371477903578,-0.005273553028274462,-0.020090329757909926,-0.0008385838756856667,0.9997839091852598
1,240000000,0.3275733317508119,-0.1218461153147545,9.841948396683208,-0.06921819658497991,-0.02067743716567919,0.04788709781547623,0.0033499997030617124,-0.007698872563375758,-0.0035716045434335264,0.0022310351667396565,-0.010360866399981537,-0.003535885559563752,0.020839946894257572,-0.009743030615615876,0.007428385631935323,-0.005172497948357477,-0.020136376875352604,-0.000793974581881978,0.9997835471719223
1,250000000,0.33493779257380435,-0.11506267560945042,9.847642072821015,-0.06308496902663208,-0.01592439771678227,0.053793373054232305,0.003368937032433905,-0.00780344072206951,-0.0036044699324664364,0.0015666527576049137,-0.010544843606214003,-0.0030273484549479686,0.021839640846710504,-0.010750036460791049,0.0073074012291210605,-0.005064714130987553,-0.0201881513326264,-0.0007512061316381365,0.9997830879275215
1,260000000,0.3445773010087799,-0.1076987296521076,9.85216575710033,-0.05471782602534268,-0.010668532125859734,0.05862032842612365,0.0033815844808486872,-0.00790959713031647,-0.0036319649785263586,0.0009767821710168184,-0.010677678267177098,-0.0024636158313686538,0.02213197364119426,-0.011474295312150712,0.007840773662821755,-0.004953673465557809,-0.02024424745377712,-0.0007072097416305069,0.9997825420653275
1,270000000,0.3552214351577275,-0.10047886232872484,9.854644072035581,-0.04532274943018799,-0.0055686524350767085,0.061450344384972405,0.003388768712881074,-0.008016821691661846,-0.0036536146329058106,0.0004757226824109435,-0.010758734201731667,-0.0018615983511356372,0.021717039435545246,-0.011915609736096247,0.009028519245196504,-0.00484284698205207,-0.020303258027280526,-0.0006589191689270966,0.999781921406921
1,280000000,0.3668411378089772,-0.09347702464384731,9.855076980032338,-0.03489973924116802,-0.0006247586444331973,0.06228342093077858,0.003391429235961141,-0.008124604418130232,-0.0036691358940070806,7.375362772594205e-05,-0.010789571268879097,-0.0012412654083793463,0.02059493867451778,-0.012073776627548287,0.010870658515961081,-0.004735704709289283,-0.020363774408437937,-0.0006032710065354289,0.9997812390002332
1,290000000,0.3794074270457258,-0.08676747287674219,9.853464747295567,-0.023448795458282757,0.004163149246070804,0.061119558063542155,0.0033906083513102203,-0.008232450920344192,-0.0036784454541782807,-0.00021884565709953332,-0.010771749327620792,-0.0006225863972302065,0.018765778115232848,-0.011948587222723192,0.013367216261125624,-0.004635715706101271,-0.020424387060180654,-0.0005372047832529582,0.9997805088938916
1,300000000,0.3928914344199651,-0.08042468379050464,9.84980795315834,-0.010969918081532228,0.00879507123643529,0.05795875578326316,0.003387451153201937,-0.008339882407515375,-0.003681659699704465,-0.00039179583612682935,-0.010706828236958146,-2.553071181864383e-05,0.016229670861688684,-0.011539827118138111,0.016518221543505233,-0.004546348265235491,-0.020483686531687473,-0.0004576628674793681,0.9997797456681259
1,310000000,0.40726931576007286,-0.07450627610394996,9.84410742007493,0.0025368928890835904,0.013271007326660264,0.05280101408994158,0.0033832055293601115,-0.00844643568744452,-0.003679094710812958,-0.0004348175734172937,-0.010596367855892548,0.0005299322537249157,0.013479817973122293,-0.010991357917242211,0.019725184758720486,-0.004470267966170906,-0.020540501441127186,-0.0003625379187054255,0.9997789621066824
1,320000000,0.42253681843259605,-0.06900181795521976,9.836363859830135,0.017071637453564686,0.017590957516745727,0.045646332983577426,0.003379222161015605,-0.008551663166530332,-0.003671266261677353,-0.0003376315330322734,-0.010441928043425405,0.0010238331052700468,0.011009291710701473,-0.010447270709173954,0.02238958588472192,-0.004406931667105444,-0.020594609459745113,-0.00025351466292688053,0.9997781637667417
1,330000000,0.43869450772060425,-0.063883529954247,9.826577864496379,0.03263431561191106,0.021754921806691675,0.03649471246417068,0.0033769545224515696,-0.008655132849742841,-0.0036588898204028553,-8.995837903311545e-05,-0.010245068658558103,0.001436202448686323,0.008818032974837369,-0.009907690747235532,0.024511395552725693,-0.004354995385458568,-0.020646027321913757,-0.00013322479158528258,0.9997773541254924
1,340000000,0.4557428838308337,-0.059123246729929003,9.814749956219167,0.04922492736412272,0.025762900196498115,0.025346152531721344,0.003377958881600307,-0.008756428340658928,-0.0036428805490444915,0.000318481224518833,-0.010007349560292037,0.001747070889843319,0.006905985455486352,-0.009372737307029538,0.02609058582956336,-0.004313116582560881,-0.020694773292066277,-4.29905556132943e-06,0.9997765367147067
1,350000000,0.4736823979109334,-0.05469242417547262,9.800880596902955,0.06684347271016833,0.029614892686166936,0.012200653186258096,0.0033838942995600974,-0.008855148841432126,-0.003624353303593786,0.0008979666135622241,-0.009730330607628604,0.0019364690346106081,0.005273095623040125,-0.008842523679056333,0.027127130204544287,-0.0042799540165403185,-0.02074086630802688,0.00013063265990276434,0.9997757155450001
1,360000000,0.4901588081751773,-0.05043115203712257,9.787312936277878,0.08303987712504887,0.03345932534558702,-0.0007001105530895635,0.003396502213462327,-0.008950907915931339,-0.003604603953228036,0.0016506101797449041,-0.009415076904233509,0.0019918997656446654,0.003919312723929,-0.008317157164208944,0.02762100357918791,-0.004254167598231595,-0.02078432527113416,0.0002689412610224265,0.9997748954398025
1,370000000,0.5028187852421796,-0.046176239454827704,9.776390788591215,0.09536410113201793,0.03744462212141616,-0.011114495734295238,0.0034173818469298567,-0.00904331988402518,-0.0035849038940960476,0.0025458568880368316,-0.009060674553662166,0.0019307547520759569,0.0028445887805602973,-0.007796739071943208,0.02757218225962945,-0.004234418250140635,-0.020825168482957734,0.00040799837220701816,0.9997740822791255
1,380000000,0.5116639533835262,-0.041893937553061686,9.768115498365244,0.10381614473107541,0.04157078301365425,-0.019042502357358767,0.0034477656223543818,-0.009131986216040389,-0.0035662945647163546,0.00354498493435887,-0.008665714914750496,0.0017778977794859051,0.002048878595212375,-0.0072813647209035446,0.02698064395150189,-0.004219367768347628,-0.02086341322843116,0.000545176263765351,0.999773283153204
1,390000000,0.5166957786250116,-0.03755060115482371,9.762488245332113,0.10839600792222161,0.04583780802230149,-0.02448413042228051,0.0034884987440477744,-0.009216494295889888,-0.0035495687657509656,0.004609272514631948,-0.008228789346334392,0.0015581926334559226,0.0015321397575090816,-0.00677112344177567,0.025846367757099198,-0.0042076786871515694,-0.020899075505252506,0.000677847780563261,0.9997725064260758
1,400000000,0.5179155643835491,-0.03311282052363686,9.759510045471286,0.10910369070545634,0.05024569714735777,-0.027439379929060252,0.003540039198441036,-0.009296417421069236,-0.0035352706600071393,0.005699997824776932,-0.00774848920724977,0.0012965030995674342,0.0012943326550908432,-0.006266098582154402,0.02416933417462464,-0.004198014146181248,-0.020932169899441275,0.0008033862715521589,0.9997717617091554
1,410000000,0.5153221274813317,-0.02855322684073603,9.75918185689012,0.1059391930807796,0.05479445038882312,-0.027908250877698,0.0036024577536863944,-0.009371314802663733,-0.0035236957724347207,0.006778439060714706,-0.007223405856332539,0.0010176929634018576,0.0011848691722658093,-0.005696449243365997,0.022401586755686223,-0.0041892736192743005,-0.02096259694132403,0.0009199034776441272,0.9997710604401442
1,420000000,0.5089048844124635,-0.02386757210693978,9.761504903545958,0.09890251504819136,0.0594840677466975,-0.025890743268193732,0.003675437960026784,-0.009440731565351967,-0.0035148909901274727,0.007805874418366153,-0.00665213065241861,0.0007466260105406133,0.0010532221851620883,-0.00499227631860897,0.02099517682011225,-0.004181300230895288,-0.020989805614688106,0.0010284631933826457,0.9997704171719107
1,430000000,0.49865086850158646,-0.01905759365882081,9.766480346716374,0.0879936566076917,0.06431454922098094,-0.021386857100547493,0.0037582761497674255,-0.009504198747396941,-0.0035086545623270737,0.008743582093652162,-0.006033254954343891,0.0005081660265651223,0.0008994401962208531,-0.00415357096083864,0.01995010404594892,-0.004174172892215595,-0.021013132081064565,0.0011308671621238203,0.9997698463647877
1,440000000,0.4845470293959151,-0.014125204782498348,9.774109132234978,0.07321261775928052,0.06928589481167344,-0.014396592374759251,0.003849881436991609,-0.009561233300654948,-0.0035045361004155673,0.009552840282493619,-0.005365370120944292,0.00032717679705680303,0.000723567273580988,-0.0031803251221934076,0.01926636813065158,-0.004167970440156438,-0.021031912451798928,0.0012289171107118314,0.9997693616248524
1,450000000,0.4665802019418427,-0.009072363793476057,9.784391939053284,0.054559398502961265,0.07439810451877332,-0.0049199490908314325,0.003948775717759645,-0.009611338090559585,-0.0035018365779189153,0.010194927180811404,-0.004647067511055723,0.00022852210759707642,0.0005256430507998336,-0.002072531552397853,0.018943968793266142,-0.00416277171772123,-0.021045482805447747,0.0013244147675608598,0.99976897576922
1,460000000,0.4470288849714141,-0.005058605534383838,9.795518707854374,0.034403446833391825,0.07848611916394438,0.0053405601926097375,0.004053113415665166,-0.009654011604997237,-0.003499622518148282,0.010639019153923969,-0.003880822018738094,0.00023139069514007402,0.00030570272679236304,-0.0008301837983657111,0.018982905776789714,-0.004158655702551076,-0.021053179212766778,0.001419161882751568,0.9997687008540193
1,470000000,0.4281704912381564,-0.003245010268551156,9.805679012245514,0.015114199446858734,0.08038488512426724,0.014682431035123908,0.004160898680851233,-0.009688854751260578,-0.003496882057680839,0.01088588513175603,-0.003084642623392996,0.0003322711833128481,6.377706595959493e-05,0.000546723795184953,0.019383178850638717,-0.0041557016836902575,-0.02105433776932703,0.0015149602501261965,0.9997685481650499
1,480000000,0.40999015137999206,-0.0036356130320685954,9.814872683410888,-0.003308343656638019,0.08009440239974183,0.023105663436711076,0.004270202588486427,-0.009715677652744503,-0.0034926810094288996,0.010944192157137935,-0.0022804218118689097,0.0005219771877061288,-0.0002001076015333187,0.002058196084290323,0.020144787813152886,-0.004153989486567789,-0.021048294635802985,0.0016136117313774992,0.9997685281711214
1,490000000,0.3924729608127008,-0.006234195697621008,9.823099485088436,-0.02086418247709842,0.07761467099036824,0.030610257397371242,0.004379182884292732,-0.009734509357731014,-0.003486177050153305,0.010822607272900055,-0.001490052071014318,0.0007913223239106465,-0.0004859293793600127,0.0037042371236605718,0.021267732494063458,-0.004153599746184258,-0.02103438608600381,0.0017169182821419715,0.9997686504400635
1,500000000,0.3756039134525035,-0.011044311144670636,9.830359117563315,-0.03755331701452247,0.07294569089614644,0.037196212917104406,0.004486083984403422,-0.009745597839357245,-0.0034766197204594285,0.010529797521872754,-0.0007354258876777041,0.0011311202075171309,-0.0007936708045519924,0.005484850164147486,0.022752012756853967,-0.004154614228487762,-0.021011948562745252,0.0018266819801253504,0.9997689235174059
1,510000000,0.3593795478038787,-0.01806503776175517,9.836650801375443,-0.05337574726891017,0.06608746211707642,0.04286352999591055,0.004589236975334643,-0.009749409995631453,-0.003463350424793621,0.010074429946886393,-3.8435748707549104e-05,0.0015321844541163118,-0.0010061160433410166,0.00704348607972363,0.02424161721591259,-0.004156929352148784,-0.02098090924816409,0.001944121773450984,0.9997693442869767
1,520000000,0.343843159465738,-0.027278334544118137,9.841972197474997,-0.06833147324026154,0.05703998465315817,0.04761220863378971,0.004687059614099098,-0.009746631649436566,-0.0034458024314485414,0.009465171590771338,0.0005790258590476649,0.0019853286792989194,-0.001006135196741295,0.008023562404662116,0.02538054030649753,-0.004159694499276815,-0.02094355721275505,0.002068123520347234,0.9997698671284574
1,530000000,0.32904988465226304,-0.03866210370482926,9.846320981649374,-0.08242049492857656,0.04580325850439172,0.05144224883074186,0.0047780563280070965,-0.009738167548512422,-0.003423500872560492,0.00871068949635795,0.0010950664487394545,0.0024813664986556836,-0.0007938454060056961,0.008425029990244717,0.026168792201737092,-0.004161869802410012,-0.0209027710935777,0.0021969895259250473,0.9997704367690515
1,540000000,0.315055040101583,-0.05219449276029461,9.849695313232479,-0.09564281233385521,0.03237728367077705,0.054353650586767,0.00486081821497919,-0.00972514136547531,-0.003396062744108974,0.007819650706476592,0.0014877935335193386,0.0030111115277773335,-0.0003693669841649854,0.00824783731137835,0.026606385141332404,-0.004162412167789948,-0.02086142836987352,0.0023290217050156983,0.9997709991739167
1,550000000,0.3019141436158901,-0.06785388966577477,9.852093836182217,-0.10799842545609753,0.01676206015231417,0.05634641390186514,0.004934023043290381,-0.009708895697814413,-0.0033631969059202405,0.006800722263957631,0.0017353146265388357,0.003565377382254601,0.00026717658270113516,0.007491930469841806,0.02669333343297898,-0.004160274977303999,-0.020822405312586556,0.0024625216056828538,0.9997715016624815
1,560000000,0.29161506682965155,-0.08303894677188911,9.8512481032505,-0.11747652511096278,0.0015293893499509963,0.05521288114547239,0.004996452008299457,-0.009690970636249574,-0.0033247224787644747,0.005669273900922326,0.001824309902066535,0.004127618827682112,0.0011156586358541112,0.006157253195001028,0.026429653459256235,-0.004154407984705196,-0.02078857700530124,0.0025957905521828547,0.9997718928994755
1,570000000,0.2861491048257854,-0.09515069836006007,9.844890369901009,-0.12206629252581055,-0.010748915072041567,0.04874538416007729,0.005047174056841186,-0.009672868016025404,-0.003280771213195255,0.0044674862025384406,0.001775750301472436,0.0046518551244007,0.002175949346181563,0.004243746841913202,0.02581536369025821,-0.004143757405998684,-0.020762817437040313,0.0027271299076772173,0.9997721227605333
1,580000000,0.28557662130300554,-0.10417156164919217,9.833020406834724,-0.12176772770063801,-0.020072853113659864,0.036943922945676694,0.005085730212300632,-0.009655815667592549,-0.0032319898589125984,0.0032442424912061795,0.0016191794885602837,0.005084746630120307,0.003447915718614159,0.001751350386741772,0.024850484702238294,-0.004127266203853247,-0.020747999667351982,0.0028548414569965408,0.9997721420722531
1,590000000,0.2899570550910652,-0.11008425990167175,9.815637298792282,-0.11658083063544522,-0.026442424774903918,0.019808497502270636,0.005112150331058274,-0.00964074598475051,-0.0031795585620382205,0.0020484260893257463,0.0013841411271338195,0.005372953702550883,0.004931421598913587,-0.0013199995805951324,0.02353503920254098,-0.004103874565833991,-0.020746996064037897,0.002977227909725584,0.999771902226623
1,600000000,0.2993484937424191,-0.11287176736018165,9.792739093758538,-0.10650560133023207,-0.029857630055773708,-0.002660892170140934,0.00512695310288791,-0.009628295924665409,-0.0031251908651142024,0.0009289203192973419,0.001100178880996786,0.005463136699402368,0.006626327683072349,-0.004970368866619647,0.021869052061093165,-0.004072520576209463,-0.020762678613771228,0.0030925935238101045,0.9997713546697735
1,610000000,0.31378236946889515,-0.11252316749126647,9.764323179989603,-0.09154203978499866,-0.03031846895626924,-0.030464246071557968,0.005131146050615598,-0.00961880700786466,-0.003071133707108764,-6.539149647882906e-05,0.000796836413952926,0.0053019559783847115,0.008361044920125873,-0.008439219847151595,0.020173959296308445,-0.004032428664571944,-0.0207966568632879,0.003199767323448788,0.9997704736945634
1,620000000,0.33318910987928296,-0.10905132878130068,9.730388534368023,-0.07169014599974488,-0.027824941476390502,-0.06360156420198049,0.005126225530489137,-0.009612325318244075,-0.0030201674234136,-0.0008856260356025654,0.0005036573898059817,0.0048360718972078574,0.009964221192373607,-0.010965929062905031,0.018771139170832108,-0.003983974976854448,-0.020845491080183194,0.0032996701601690315,0.9997693262057222
1,630000000,0.3574740501255603,-0.10247513958654035,9.690934281579912,-0.04694991997447143,-0.02237704761613766,-0.10207284656140762,0.005114176731922271,-0.009608601503050096,-0.002975605745839882,-0.001482899975673651,0.0002501854723597009,0.004012144813581772,0.011436068324010158,-0.012550444171562102,0.017660518108015437,-0.003927827489730388,-0.02090447984237805,0.0033937451910587084,0.9997680017820677
1,640000000,0.3865430452171545,-0.0928136578040044,9.645959527993943,-0.017321361709177197,-0.01397478737551048,-0.14587809314984101,0.005097473677437847,-0.009607090772895788,-0.0029412958026240332,-0.0018083299942919114,6.596432541781499e-05,0.0027768350852163644,0.012776792304601407,-0.013192710050158261,0.01684201070029119,-0.0038646579699632487,-0.02096892224588564,0.003483434275003195,0.9997665899620135
1,650000000,0.42030307921418875,-0.08008618319920092,9.595463858351401,0.017195528796137352,-0.0026181607545090434,-0.19501730396727984,0.0050790792228099235,-0.009606952901759058,-0.0029216181184255063,-0.0018130327690571279,-1.946238721592798e-05,0.0010768030698215976,0.013986593282927584,-0.012892668792062339,0.016315519697339617,-0.0037951412753273166,-0.021034117626953404,0.003570177181296213,0.9997651807465842
1,660000000,0.45265409073583696,-0.0667403381050406,9.551124297425464,0.05012339928049453,0.00930679188297119,-0.2380584413033192,0.005062391079746931,-0.009607072110508597,-0.002921391348027047,-0.0014697160745562993,1.549555882638115e-05,-0.001103184218805082,0.015065665566872468,-0.011650259708232929,0.01608093600763334,-0.0037199549224962935,-0.021095365319914287,0.0036554109211004186,0.9997638648542925
1,670000000,0.47750168555877603,-0.055213028635409875,9.524623546748586,0.07498480482323483,0.01941399604030088,-0.2635693039102113,0.00505064805594202,-0.00960627578797002,-0.0029448243361347437,-0.0008374529999195694,0.0001606142888428922,-0.0036259315071471452,0.016014197630756767,-0.009465419332362517,0.01613813871276405,-0.003639778921467348,-0.021147964451021264,0.0037405692020996612,0.9997627337278708
1,680000000,0.4947621655128846,-0.045506954431324194,9.515970364827304,0.09177974542427546,0.027703451717449507,-0.27154989178780986,0.0050463362921675525,-0.009603553213732852,-0.002994468169010389,3.091805436066429e-06,0.00039771631803179545,-0.006316136047911666,0.01683237213150891,-0.006338081429533009,0.016486995093950824,-0.0035552958759527704,-0.021187213768435145,0.003827082006639005,0.9997618792929042
1,690000000,0.5043497443606049,-0.03762389703918073,9.525173264165115,0.1005082210836164,0.03417515891441709,-0.26200020493611503,0.005051135282286623,-0.009598075442223575,-0.0030711209054419264,0.0009712536920936097,0.0007086241615912793,-0.008998495093805703,0.017520365935069664,-0.002268177007997363,0.01712736067013275,-0.003467191349085814,-0.02120841150850081,0.003916375293683955,0.9997613934684585
1,700000000,0.5061748103648183,-0.03156473168676718,9.552239768568517,0.1011702318012576,0.03882911763120361,-0.23492024335512685,0.005065917874077286,-0.009589195302735831,-0.0031738275767465574,0.0019863680106360633,0.0010751603347195341,-0.011497705897536329,0.01807835015441516,0.0027443656662905842,0.018059079247052624,-0.003376154493738175,-0.02120685529848348,0.004009870825065588,0.9997613674298232
1,710000000,0.500176057053021,-0.027333415513019318,9.59717388493304,0.09376577757719917,0.041665327867809056,-0.19031000704484508,0.0050907502684935935,-0.009576447399384236,-0.003299880186762305,0.002967770111646432,0.0014791473526147487,-0.013638465711810602,0.01836629533174321,0.007641774021227015,0.01897825020162569,-0.003283101458770507,-0.02117960585366713,0.004108460048899969,0.9997618546917668
1,720000000,0.486422109322336,-0.024949302589413348,9.659970411580773,0.07829485841144099,0.04268378962423347,-0.12816949600526992,0.005124892020120342,-0.009559548111150562,-0.0034448177118600043,0.003834795345707715,0.0019024077304751123,-0.015245471789335586,0.018243925045490834,0.011366218838522063,0.019581202588559724,-0.0031898406951065485,-0.02113077946821829,0.004210928811470916,0.9997627634363815
1,730000000,0.46501300212198665,-0.024436294879714573,9.740620918205703,0.05475747430398316,0.04188450290047682,-0.048498710236401316,0.005166796037059385,-0.009538395591858873,-0.0036024261009357517,0.00450677906340292,0.0023267639834988157,-0.01614342138281836,0.017711043203833373,0.013917721413995525,0.019868112112700394,-0.003098399651491867,-0.0210662587691467,0.0043155410954714675,0.999763966527162
1,740000000,0.43604870839619464,-0.025819880201597825,9.839116366123825,0.02315362525482556,0.03926746769653911,0.04870235026176084,0.005214108580815946,-0.009513069770177296,-0.00376473827541135,0.0049030566153150466,0.002734038626884046,-0.016157011744965973,0.016767458384883655,0.015296306002338745,0.01983913771134899,-0.003010800564048922,-0.020991929290240182,0.004420566450500966,0.9997653387554971
1,750000000,0.3996312914826837,-0.02912810308877249,9.955447920937656,-0.016516688736031696,0.03483268401242033,0.16343368548921636,0.0052636692666112594,-0.009483832349632237,-0.0039220341292387495,0.0049429633520271,0.003106054175828994,-0.015110940128485496,0.015412983824808922,0.0155019998101284,0.019494421540347372,-0.002929059875781643,-0.020913679438899407,0.0045242801926854,0.9997667575536352
1,760000000,0.3623760554638463,-0.03346884744887843,10.066879971561997,-0.05681269550251168,0.029432264811479324,0.2732524534321598,0.005311573069405995,-0.009451119707652111,-0.004063027552578369,0.004570637198009003,0.0034274735220763794,-0.012904713259463348,0.013647437418848305,0.014534832981350294,0.01883408897622859,-0.0028551880581675873,-0.020837400320762565,0.004624963120764362,0.9997681032945371
1,770000000,0.3309177034535894,-0.03797072072311779,10.150681769126919,-0.09029362287853741,0.0239183230570749,0.3557158120767856,0.005353852395018066,-0.009415464785210048,-0.0041769236923192565,0.003829426373278379,0.0036943210635470374,-0.009737075757503356,0.011470641732815633,0.012394838576384735,0.01785824863393545,-0.0027911898337713657,-0.020768985423628726,0.0047209007496595845,0.9997692591792852
1,780000000,0.30539130774069084,-0.042694051772062,10.206853057004434,-0.11695947086410888,0.018290858749207058,0.41082376142309346,0.005387159150615162,-0.009377418976480811,-0.004255476212595255,0.0027874816717397667,0.0039054615747063323,-0.0058815817155886884,0.008882424022682125,0.009082052545428586,0.016566992399608498,-0.0027390647988989915,-0.020714330162059515,0.004810382062616243,0.9997701107126459
1,790000000,0.2859307567129931,-0.04769637623907395,10.23539388006196,-0.13681023945922613,0.012549871887875796,0.4385763014710838,0.005408826751477136,-0.009337545027898742,-0.004293174318473536,0.0015129538872977145,0.004059759830019633,-0.0016117852267025358,0.005882616259839378,0.004596513697328991,0.01496039547793904,-0.002700808445577105,-0.020679331283709534,0.0048916977829330036,0.9997705447672478
1,800000000,0.2726655242000534,-0.053031106571838814,10.236303863679835,-0.14984592866388907,0.006695362473081126,0.4389734322207564,0.005416870120711792,-0.009296417038152427,-0.004287242755949272,7.399381385675779e-05,0.004156080603952304,0.002798759616171937,0.0024710551596631805,-0.0010617363351743475,0.01303851645358618,-0.0026784135826299427,-0.020669886137886274,0.004963138166043116,0.99977044823663
1,810000000,0.26567851128787423,-0.058729706020301614,10.20958258414817,-0.1560665384780978,0.0007273305048230341,0.4120151536721112,0.005409985689453833,-0.009254620458175822,-0.004237641811946524,-0.001461247754678557,0.00419328867096971,0.00707649872005154,-0.00085863923389334,-0.006750780677788093,0.011156294787696424,-0.0026730649231316763,-0.020689978497140965,0.005023637068856744,0.9997697447834202
1,820000000,0.2648876379584134,-0.0647515663318794,10.15523220190775,-0.15547206890185222,-0.005354224016898472,0.35770146582514845,0.005387551396637491,-0.009212752091174892,-0.004147067314321795,-0.003024620024403687,0.00417024880553722,0.010947877991953108,-0.0036126496870820227,-0.011328798083062976,0.00966861215038432,-0.0026827206170171604,-0.02073593725635816,0.0050747100960690196,0.9997685088227336
1,830000000,0.27016504117130774,-0.07103477291268306,10.073254146620936,-0.14806251993515246,-0.011549301092083394,0.2760323686798679,0.00534962668928074,-0.009171420092595639,-0.0040209506318582555,-0.004547972201414091,0.004085825782120197,0.014139343338893464,-0.005790824857794446,-0.014795857336096925,0.008575441343533862,-0.002704535999117156,-0.02080217540325255,0.005118515773808121,0.9997668507106019
1,840000000,0.2813791489922737,-0.07751444077609308,9.963648653866885,-0.13383789157799844,-0.017857900720731734,0.16700786223626973,0.005296952522229503,-0.00913124397014542,-0.0038674586742701855,-0.005963153491805224,0.003938884375184007,0.016377340667889415,-0.007393011883501506,-0.017152029535567367,0.007876759368062527,-0.002735669378688804,-0.020883104084709152,0.005157211583040458,0.9997648799820512
1,850000000,0.2983977406588157,-0.08412454278302135,9.826415451315974,-0.11279818383044544,-0.02428002290283092,0.030627946494688835,0.0052309513583850276,-0.009092854583787613,-0.0036974938922029743,-0.007202013101672547,0.0037282893591940175,0.0173883158859578,-0.008419056381298543,-0.01839738808598882,0.007572547398374923,-0.002773280604833207,-0.020973133416117912,0.005192956176928059,0.9997627067437258
1,860000000,0.3178806268160188,-0.08993632264845068,9.687914642912238,-0.08926948388790898,-0.02983292833147293,-0.10691134266154914,0.005153691117470771,-0.009056885956189475,-0.0035244759753703114,-0.008210820579334432,0.0034561813180205773,0.016986035332010953,-0.008868802447614859,-0.018532008695127472,0.007662790770534177,-0.002814530110233569,-0.021066673046864725,0.005227910955678103,0.9997604426331513
1,870000000,0.3365125371634651,-0.09403186299094464,9.57450939289827,-0.06757781706123911,-0.03353389175781006,-0.21941434408273336,0.005067488619545202,-0.009023885188573999,-0.003361940557072618,-0.008993526223150281,0.0031378039325722414,0.015333543325176996,-0.008742092658198143,-0.017555969376381236,0.00814747898449398,-0.0028565784336784875,-0.021158132482172402,0.0052642409989072814,0.9997582013448174
1,880000000,0.3542031993890148,-0.09636394707300652,9.486205289122152,-0.047723183350436287,-0.035382913181842286,-0.30688105776886204,0.0049745130313283425,-0.008994222377280536,-0.0032211379374511573,-0.009568500364278755,0.0027916766228720663,0.012681202742806529,-0.008038768069037198,-0.015469350455905806,0.009026605720748202,-0.0028965862222594006,-0.021241921160935276,0.005304115355341305,0.999756098723057
1,890000000,0.370864550721386,-0.09688728272853406,9.42300867006307,-0.029705582755499626,-0.0353799926035697,-0.36931148371993944,0.0048767498161623735,-0.00896808242446312,-0.003110814787877114,-0.009954113333878549,0.002436318808943086,0.009279376462249977,-0.006758668218856231,-0.012272234584284083,0.010300168871746632,-0.0029317147143445308,-0.021312448288942937,0.005349706689596487,0.999754252421614
1,900000000,0.38640802022913046,-0.09555701691954362,9.384926415895372,-0.013525015276429592,-0.03352513002299224,-0.4067056219359631,0.0047760007341253186,-0.008945465038053158,-0.0030372141509436013,-0.010168735463108307,0.0020902499108083547,0.0053784273608579155,-0.004901631133840254,-0.007964706752529124,0.011968170588430404,-0.002959126704379101,-0.021364122426946935,0.005403190285892449,0.9997527811298192
1,910000000,0.40076848103362134,-0.09234418295558088,9.371964421269006,0.0008185190867738158,-0.029818325440109907,-0.4190634724169329,0.004673883841945781,-0.008926184731794962,-0.003004075440471876,-0.010230737083126695,0.0017719893484909228,0.0012287183159808866,-0.003022235257886362,-0.003397638901867067,0.01373616794906162,-0.0029769007873385817,-0.021392781974711096,0.005466188858590029,0.9997517730519145
1,920000000,0.41398176537034714,-0.08728510964815046,9.384123219487272,0.013325020334110604,-0.024259578854922685,-0.4063850351628489,0.004571833493059785,-0.00890987082522976,-0.0030126344415108974,-0.010158488525092385,0.0015000565420138397,-0.0029193877950305725,-0.0016752207651301576,0.0005782146874346449,0.01530971960758848,-0.0029867699765938893,-0.021399988653725787,0.005538109451974571,0.9997511935648915
1,930000000,0.42610421067542725,-0.08043055887471605,9.421401459741675,0.023994488465580763,-0.01684889026743059,-0.3686703101737112,0.004471100337610778,-0.008895967443699249,-0.003061623310334216,-0.009970360120164038,0.001292970911400152,-0.006815528094825917,-0.0008606762507721976,0.003962935907325053,0.016688819201749954,-0.0029913811505839806,-0.021388735572584867,0.005617803028403952,0.999750975952788
1,940000000,0.43718728640514254,-0.07183002698300026,9.48379730216815,0.0328269234811843,-0.007586259677633617,-0.30591929744951973,0.0043727513223643655,-0.008883733518349146,-0.0031472705744453044,-0.009684722199500326,0.0011692518766729105,-0.010209339706054617,-0.0005786918624675931,0.006756612427010769,0.017873447161294367,-0.0029933810705233778,-0.021362016853112616,0.005704119196610117,0.9997510524775279
1,950000000,0.4472790414333931,-0.06153310221914234,9.571308574595095,0.039822325380922965,0.0035283129144659192,-0.21813199699030167,0.00427766969090726,-0.008872242786116757,-0.0032633011325695627,-0.00931994509425991,0.0011474188578551629,-0.012850459751366143,-0.0008293592919014034,0.008959337697885822,0.01886357069320986,-0.0029954155650608657,-0.021322828100112826,0.0057959073580848945,0.9997513550604982
1,960000000,0.4568224282807714,-0.05110950487111162,9.664749358562792,0.04621061751381623,0.014861235532312191,-0.12444715797511308,0.004186565232714656,-0.008860397403038789,-0.003401095744618221,-0.00889029938621743,0.0012405459618901045,-0.014552321260057616,-0.0016127717661702469,0.010571210957952023,0.019659143773354967,-0.0030001288510945446,-0.02127416675248944,0.005892017534991698,0.9997518157949159
1,970000000,0.4662672001965377,-0.04213036233822563,9.74493383191101,0.05322171736417126,0.02477892398889741,-0.044003438322641635,0.0041000870263587785,-0.008847077690028016,-0.0035514454151264196,-0.00839365671825871,0.0014399261212972036,-0.015383539975410795,-0.0029290240399809297,0.011592337236507254,0.02026010714496034,-0.003010162991012841,-0.02121903231572195,0.0059913008793997255,0.9997523672890825
1,980000000,0.4756720071107046,-0.034648880607729284,9.811859580610683,0.06085562493198805,0.03328137828422156,0.023199161967112622,0.0040189361818079306,-0.008831291878234282,-0.003706305772127383,-0.007823789013209133,0.0017314069944638498,-0.01547652709105284,-0.004778212389741096,0.012022827359896314,0.02066638832446405,-0.0030281574864357533,-0.021160426475869413,0.006092609863737271,0.9997529428407026
1,990000000,0.4850976847920709,-0.028718520120821035,9.865524009785652,0.06911234021726663,0.04036859841828466,0.0771606428941498,0.00394387608983493,-0.008812189722229746,-0.003858956555593984,-0.007174468193894075,0.0021008362397774323,-0.01496369380061093,-0.007160434610561176,0.011862797959108242,0.0208779016151492,-0.0030567490084265764,-0.021101353095384724,0.006194798152453165,0.9997534764425147
2,0,0.4946064982665063,-0.02439229043658287,9.905924263428302,0.07799186322000698,0.046040584391086686,0.11788100445846976,0.0038757324219034217,-0.008789062500001776,-0.004004001617431641,-0.0064394661831389255,0.00253406151562534,-0.013977451297712235,-0.010075790017231134,0.011112371480006326,0.020894548129047896,-0.00309857126407763,-0.021044818091028886,0.006296720154957648,0.9997539026195033
2,10000000,0.5042464862888553,-0.021699834253722357,9.933057942552612,0.08749419394020888,0.050297336202627566,0.14536024666007213,0.0038153931303952504,-0.008761343012952949,-0.004137368921484974,-0.005612554903769082,0.0030169304803949522,-0.012650210775983958,-0.012846773272077209,0.010221428459231458,0.020851421760417297,-0.0031551339891332203,-0.02099305898422731,0.0063975287066290526,0.9997541738999859
2,20000000,0.514005865224954,-0.020579866945456445,9.94692552466137,0.09761933237787299,0.05313885385290755,0.15959836949895828,0.003763808448297823,-0.008728605585902827,-0.0042563105435338144,-0.004687506278609869,0.0035352907924736904,-0.011114383429053172,-0.014795774323065157,0.00963964445375689,0.020883771198147442,-0.0032234614937116327,-0.020945232450803295,0.0064975693824862735,0.9997543138820159
2,30000000,0.5238572484833788,-0.020946509603552314,9.947528126743356,0.10836727853299839,0.054565137341926376,0.1605953729751269,0.0037219908896020115,-0.008690566067087957,-0.004359402671294976,-0.0036580922304867533,0.0040749901102489,-0.009502380450547184,-0.015922736201617573,0.009366837476796026,0.020991720782531212,-0.0032994582971818927,-0.02089972223839766,0.00659748487213315,0.9997543640208154
2,40000000,0.5337728539620645,-0.022712442339724314,9.934866842404475,0.11973803240558607,0.054576186669684154,0.14835125708857813,0.0036910152487052983,-0.008647081828151215,-0.004446545604418262,-0.002518084682225022,0.004621876092108016,-0.007946613034093027,-0.01622760146521231,0.009402823758494902,0.021175396059509365,-0.0033790304643986943,-0.020854909113276785,0.006697917001511559,0.9997543662454486
2,50000000,0.5437249040891075,-0.025789995075767597,9.90894286323423,0.1317315939955621,0.053172001836184986,0.12286602183952924,0.0036720186011507394,-0.008598151764168449,-0.004518963754494898,-0.0012612555566501606,0.00516179639643838,-0.006579492373318002,-0.015710312198850346,0.009747417742665701,0.02143492377650393,-0.0034580855955799136,-0.020809170903542906,0.006799507035011701,0.9997543632084841
2,60000000,0.5508789793120812,-0.029944689694648818,9.879392447122958,0.1411420578845844,0.0505308837485674,0.09364872066128292,0.0036661735869358836,-0.008543914807763286,-0.004579126402180833,0.00010793682106085779,0.005681193020818616,-0.005501732665926987,-0.01437081002005872,0.010400432090094447,0.0217704318894942,-0.0035325328569280937,-0.020760882447642487,0.006902895714416662,0.9997543983410955
2,70000000,0.552397463755652,-0.03494656320687304,9.855850843310979,0.14476357980130028,0.04683112991319506,0.07020822561872415,0.003674394537341641,-0.008484633584950885,-0.004629876037751224,0.0015422891278005057,0.006168885285583882,-0.004687261939640042,-0.012209036087487492,0.011361677688535422,0.022182049581522544,-0.0035982830519300795,-0.02070841544818761,0.007008723034362564,0.9997545157137981
2,80000000,0.548247949451739,-0.04071511392397063,9.838318153707156,0.14259615974571002,0.0420727403300676,0.052544536711850845,0.0036970436045464794,-0.008420678071111354,-0.00467355671070635,0.0029839119438458458,0.006614286833256666,-0.004078312133100225,-0.009224931113159434,0.012630963669504613,0.022669907292818002,-0.003651248733274719,-0.020650138231138718,0.007117627753980376,0.9997547597030375
2,90000000,0.5383978775326771,-0.047169421183497005,9.826794400272863,0.13463979771781395,0.03625571499918547,0.040657653940664576,0.003733904046526959,-0.00835252410520404,-0.004711934789940919,0.004374915849473692,0.007006811306359387,-0.0036171151849507303,-0.005418435378434958,0.014208097431987435,0.023234136762722207,-0.0036873443552883217,-0.020584415410524658,0.007230246644331947,0.9997551744638657
2,100000000,0.5228143488127226,-0.0542276077824145,9.82127940951118,0.12089449371761124,0.029380053920548148,0.03454757730516429,0.0037841802270861535,-0.008280753389756867,-0.004746198963729409,0.005657411424961101,0.0073358723474145245,-0.003245903033834649,-0.0007894887538447206,0.01609288467312139,0.023874871083598505,-0.0037024864667976978,-0.020509607459111356,0.007347213471182136,0.9997558032089863
2,110000000,0.5014859062805761,-0.06183992308583899,9.82177135562675,0.10136024774510319,0.021445757094156245,0.03421430680535052,0.00384649761585365,-0.008206053490885878,-0.004776960239735839,0.006773509250584906,0.007590883598944504,-0.002906907618395154,0.0036341168713075207,0.017614126280592425,0.024573563422797973,-0.003694284339628817,-0.020425226230689583,0.007469018079080476,0.9997566584752399
2,120000000,0.47448834486340064,-0.07008927615453368,9.828262891659625,0.07603705980028806,0.012452824520009047,0.039657842441223265,0.003918902788228706,-0.008129217838270364,-0.004804251945011995,0.007665319906622139,0.007761258703471797,-0.002542360877275349,0.006824415772995933,0.018100980386645753,0.025311453971618145,-0.0036671086880892922,-0.020335405841257623,0.007595589134925579,0.999757635934247
2,130000000,0.4419191262113102,-0.07909077497183666,9.840745761920624,0.044924929883167986,0.0024012561981073544,0.05087818421278199,0.0039988634253518285,-0.008051145725165298,-0.004827529725991653,0.00827495397334966,0.007836411303518838,-0.002094494749118404,0.00878114305506836,0.01755375672256174,0.026088376528269546,-0.003627016053007622,-0.020245440609705918,0.007726718836415404,0.999758603216343
2,140000000,0.4038760038490015,-0.08895882010720381,9.859212661271343,0.008023857993740377,-0.008708947871549709,0.06787533212002773,0.004083268314303723,-0.007972842308403116,-0.004845671548499464,0.008544522031044461,0.007805755041608089,-0.0015055411725674135,0.009504026151255108,0.01597277544014433,0.026904191774992793,-0.0035800574077203503,-0.020160630455879874,0.007862205081439401,0.9997594300129589
2,150000000,0.36045763424122274,-0.0998078272169303,9.883657704402756,-0.03466615586795346,-0.020877787688950343,0.09064928616292063,0.004168427347934767,-0.00789541860839904,-0.004856977697744291,0.008416134659983466,0.007658703560262001,-0.0007177320862655693,0.008992784827570112,0.013358367117140498,0.027758787281834424,-0.0035322776921702134,-0.02008628143521179,0.008001852196018231,0.9997599885341701
2,160000000,0.3182343702352663,-0.10990459961371497,9.907078455448048,-0.07643147977008954,-0.032200080294026115,0.112450607268991,0.004250127471891574,-0.007820075632519519,-0.004859227023914503,0.00785428126690522,0.007391021127011051,0.0003042023872623877,0.0072471311787233855,0.00971087277583448,0.028652077555940424,-0.00348971538068656,-0.020027706241151938,0.008145470375931307,0.9997601533276042
2,170000000,0.28378286153919413,-0.1175265944098401,9.922476328676808,-0.1105585458066005,-0.04077066089582805,0.12652992073301064,0.004324248100061823,-0.007747929733744385,-0.004850295639423408,0.006912965924133769,0.007023874327725728,0.0015055400336407459,0.004266769621840119,0.005030643910996548,0.029584004138785137,-0.0034584020819172683,-0.019990224677311923,0.008292873841804809,0.9997598004600077
2,180000000,0.257211360554008,-0.12280466264206522,9.929852090931927,-0.1370473539774893,-0.04658952949435691,0.1328872265549807,0.004387376525784248,-0.007679837970119507,-0.004828775612920833,0.00566857121032527,0.0065847802824387305,0.002809060776449108,5.139689079206983e-05,-0.0006819574766675842,0.03055453575377345,-0.003444362170046696,-0.01997916410074703,0.008443877707316035,0.9997588060629128
2,190000000,0.23862614788478853,-0.1258689395994164,9.929205616459942,-0.15589790428275363,-0.04965668608961218,0.13152252473490067,0.004436863868278351,-0.007616382228508911,-0.004794031213825711,0.004197479704136066,0.006101256111182833,0.004137544539266859,-0.005399297965526252,-0.007426558845426516,0.03156366850665196,-0.0034536124475750703,-0.019999859836567758,0.008598293560042812,0.9997570442439677
2,200000000,0.2281307090391603,-0.12684788885729117,9.920535345060115,-0.1671101967223952,-0.04997213068159413,0.1224358152727704,0.0044708250725022936,-0.0075578692245823476,-0.004746198912322974,0.0025760739842222665,0.005600818933990729,0.00541377124567362,-0.012085633577590578,-0.015202777079717988,0.03261142614117641,-0.003492161841558061,-0.020057655562098722,0.00875592375431606,0.9997543843655967
2,210000000,0.22578109203859859,-0.1258186569315668,9.903839333164075,-0.17068423129641289,-0.04753586327030275,0.10562709816859076,0.004488138909209738,-0.0075043305027886476,-0.0046861873793564435,0.000880736629240243,0.0051109858708951955,0.006560520819248777,-0.018537227554108818,-0.022680544709827055,0.03351984798521862,-0.0035636232703458192,-0.020155622278712006,0.00891641236464446,0.9997507434707356
2,220000000,0.23145454735684895,-0.12266093537752104,9.87911960645458,-0.16662000800480717,-0.04234788385573779,0.08109637342236016,0.004488447974893006,-0.00745552243638592,-0.00461567748663505,-0.0008121497821539187,0.004659274041928919,0.007500573183571929,-0.023283135907631595,-0.02853037237717526,0.03411088728058379,-0.0036620560125423807,-0.02028770779862066,0.009078820055812781,0.999746254448814
2,230000000,0.24498270310233475,-0.11720455535351469,9.846377557089406,-0.15491752684757829,-0.034408192437899734,0.04884364103408087,0.004472158691953609,-0.007410926227437997,-0.004537122306636832,-0.002426202671303829,0.00427320056712468,0.008156708262222494,-0.026322889607034727,-0.03275277063612918,0.03438444753588622,-0.0037791408503593483,-0.02044556918186464,0.009242066177830818,0.9997411069912187
2,240000000,0.2661967435125742,-0.10927941401778539,9.805613186944093,-0.13557678782472526,-0.023716789016787882,0.008868901003749971,0.004440441308503296,-0.007369747906794899,-0.004453747112598272,-0.003885039459553401,0.003980282566515173,0.008451705978780033,-0.02765602885825323,-0.03534824523822629,0.03434040928886878,-0.003906570443230711,-0.02062085183825077,0.009405080931991279,0.9997354968337874
2,250000000,0.29492863319419427,-0.09871659934890088,9.7568259680017,-0.10859779093624981,-0.010273673592403158,-0.03882784666862897,0.00439522989836405,-0.007330918334126579,-0.0043695493785236295,-0.00511227756824627,0.0038080371601331613,0.008308346256824015,-0.027282103122835757,-0.0363172971212678,0.03397863000029284,-0.004036049884052714,-0.02080518914354954,0.009566811436902838,0.999729628712166
2,260000000,0.325766738470166,-0.08789928591051241,9.709431890553162,-0.07956491445615432,0.0033492179898877332,-0.08503339703248407,0.004339175824839003,-0.007293114630678943,-0.004289222002470616,-0.006050149012972951,0.0037754083485268025,0.007680119703102549,-0.02520067111556615,-0.03566042240114552,0.03329894405658105,-0.004159296880047379,-0.020990202442447946,0.009726225003756207,0.9997237179331423
2,270000000,0.35331234213543083,-0.07921605619270827,9.67285283822855,-0.054062536658440886,0.014579949884718165,-0.12053454513724324,0.004275135839009181,-0.0072549959400944886,-0.004217308762768379,-0.006715344186310623,0.003867047654306051,0.006643359657037971,-0.021411300776876925,-0.033378112371342666,0.032301162878483565,-0.004268041563445711,-0.021167501428837197,0.009882309619903416,0.9997179905658642
2,280000000,0.3774192400207538,-0.07250792861175451,9.64709818732571,-0.03209065754311174,0.023418522092087113,-0.14533129098290318,0.0042056601786839565,-0.007215439189188544,-0.004157359774228375,-0.007143168075083058,0.00405903348059629,0.005305110141221352,-0.015913569215835456,-0.029470853515068673,0.030985075133035653,-0.004354025938635854,-0.021328684892747158,0.010034071639904774,0.9997126822568556
2,290000000,0.3979413901471477,-0.06761486063676263,9.632178453258208,-0.013649277110164934,0.029864934611995388,-0.15942363456946634,0.0041329460318308975,-0.007173560520737254,-0.004111854711434493,-0.007368925666114126,0.004327444230522927,0.003772415178243555,-0.00870706261950512,-0.023939127534941183,0.0293504470460813,-0.004409002972268119,-0.021465341824299145,0.010180530683413463,0.9997080356724961
2,300000000,0.41473121131740315,-0.06437401163556392,9.628105048947821,0.0012616046403978772,0.0339191874444424,-0.16281157589693124,0.004058837536433657,-0.007128715293488241,-0.004082202808745716,-0.007427921946227639,0.004648358307211327,0.0021523187906956854,0.00020862387539031713,-0.016783411405074954,0.027397022812671066,-0.004424735331097679,-0.021569052868368504,0.010320711739642807,0.9997042965721405
2,310000000,0.4276802342851492,-0.0626709418192,9.634887767643853,0.012641987708578025,0.035581280589428506,-0.15549511496529825,0.0039848257806340825,-0.007080498082158826,-0.004068742860293462,-0.007355461902247439,0.0049978541137869065,0.0005518650011685863,0.009201018522968236,-0.009325401996495014,0.025469325273325474,-0.004395635918112613,-0.021633680344397395,0.010454024685054023,0.9997016433053995
2,320000000,0.43684502733617936,-0.06259757196320073,9.652527457880545,0.02049187209437451,0.03485121404695358,-0.13747425177456812,0.003912048802845902,-0.007028742677437805,-0.004070743219986905,-0.007186850520997361,0.005352010053375027,-0.0009219021677466283,0.01663726663940649,-0.002886168944257532,0.023912215425940932,-0.004326687458491719,-0.021662239673432667,0.010581423312506298,0.9996999853099172
2,330000000,0.4423206369274461,-0.06429468459175991,9.68102201138519,0.024811257797788023,0.03172898781701755,-0.10874898632473913,0.003841291591385243,-0.006973522085973016,-0.004086401801504991,-0.006957392789301225,0.005686904529101109,-0.002161938693459109,0.022517139494021135,0.002534719899028493,0.022725920000359414,-0.004225507372146166,-0.02166004345927186,0.0107042341348177,0.999699158235305
2,340000000,0.44419927344790905,-0.06790060145623783,9.720368594329187,0.02560014481881816,0.02621460189962068,-0.06931931861581382,0.0037729860849253782,-0.00691514853039088,-0.00411284607830309,-0.006702393693982879,0.005978615944090511,-0.00306120055337777,0.026840400470761257,0.0069377001513949476,0.021910641118936782,-0.004099705810121118,-0.021632412860270293,0.01082377427265374,0.9996989932157619
2,350000000,0.4425713447294613,-0.07355274002745134,9.770563724626703,0.022858533157465027,0.01830805629476249,-0.019185248647788783,0.003707211172127245,-0.006854173449283962,-0.0041461330836116694,-0.0064571582218661385,0.00620322270146865,-0.003512643724911708,0.02960680500363026,0.010323210936196134,0.021466556142199993,-0.003956886860293341,-0.021584676118973863,0.010941358773446697,0.9996993205316309
2,360000000,0.4386922550038708,-0.08053860788968872,9.820867480095318,0.018192959224192118,0.008799287544318853,0.030969790022160035,0.0036437060795719844,-0.006791380914437539,-0.00418133843862023,-0.006251636251174246,0.006339436319889294,-0.0034448355457561814,0.030816100541696968,0.012691694896345022,0.021393817573387052,-0.003804649460722742,-0.0215221675264015,0.011058306311611529,0.999699972396201
2,370000000,0.4338241723445933,-0.08816214326999798,9.860538834555522,0.013209974750633187,-0.0015217602763914788,0.07046226195139932,0.003582017637768331,-0.00672771521982618,-0.004213535669349788,-0.0060943570725165526,0.00637650085545415,-0.002928789813604396,0.030468026540940118,0.014043598192922255,0.021692553023432596,-0.003650588022040211,-0.021450226818965076,0.011175943269169753,0.9997007848694291
2,380000000,0.42806884085276553,-0.09658772144416462,9.889572083899115,0.00790957973679781,-0.012655087167363108,0.09929216713986479,0.003521647548410556,-0.006664208470239075,-0.004238775528606631,-0.005988494791295835,0.006306293517460596,-0.002071132195864116,0.028562314480114787,0.014379370493028556,0.022362865237996455,-0.003502292758500443,-0.021374199009334655,0.011295606196293514,0.9997015988997924
2,390000000,0.4215297044598611,-0.10598109134414774,9.907961152923232,0.0022917741826855072,-0.024600693128597032,0.11745950558755913,0.003462065771913103,-0.006601973998359156,-0.004254175025872442,-0.005937223512914855,0.006120691515206008,-0.0009784883599429936,0.025098687897837105,0.013699464951753764,0.023404832188121148,-0.0033673497260150393,-0.021299434654691172,0.01141864265144055,0.9997022604951996
2,400000000,0.41431079009462163,-0.11650769127300885,9.915699540157926,-0.00364344191170321,-0.03735857816009217,0.12496427729448069,0.0034027105278084946,-0.00654220636478442,-0.004257917427302971,-0.005943717342776379,0.005811572057987788,0.00024251602675115546,0.0200768624480727,0.012004338193132113,0.02481850722610678,-0.0032533405646849004,-0.021231290566732702,0.011546410420684718,0.9997026200237941
2,410000000,0.40649707865729995,-0.12829054877613844,9.912781506748141,-0.00989606854636888,-0.050928742261849666,0.12180648226063005,0.0033429882943778466,-0.006486181358020815,-0.004249252255727143,-0.006011150386283177,0.005370812355103286,0.0014852552968107136,0.014700538541528621,0.009860660328304087,0.026135882763082104,-0.0031658832582733133,-0.021174115385596822,0.011679624877069833,0.9997025659582771
2,420000000,0.3980982740614362,-0.141287856796791,9.899206087006917,-0.016466105721310936,-0.06531118543386832,0.10798612048600754,0.003282273809020353,-0.006435255994471589,-0.004228495290647505,-0.00614269674883801,0.004790289615849928,0.0026431037828278546,0.010173715345254753,0.007834610420741949,0.026888956328270635,-0.003102756805264388,-0.021128200551992455,0.011816401941493086,0.9997021279795293
2,430000000,0.3891045182602157,-0.15541463141254844,9.874973716498415,-0.02335355343652997,-0.0805059076761494,0.08350319197061197,0.0032199100679406456,-0.006390868518455051,-0.004197028568241112,-0.006341530535843654,0.00406188104952504,0.003609435817394949,0.006496473887366089,0.005925893054221994,0.027077788537958742,-0.0030597802609966824,-0.021092820819984617,0.011954202772380748,0.9997013692551827
2,440000000,0.37950512006859516,-0.17058407272535903,9.840085102199849,-0.030558411692025375,-0.09651290898869155,0.04835769671444547,0.003155208326546699,-0.0063545384022063445,-0.00415730038136175,-0.006610825852702862,0.0031774638654260725,0.0042776257331042,0.0036688845321491297,0.00413423193027117,0.02670242814588859,-0.003032772492409953,-0.021067247763923505,0.01209048435988174,0.9997003518808054
2,450000000,0.36928873217849933,-0.18670850855183213,9.794541307769075,-0.03808068048779778,-0.11333218937149621,0.0025496347175049394,0.0030874480988245523,-0.006327866345847255,-0.004112825279533716,-0.006953756804818422,0.0021289152728503273,0.004541047862547935,0.0016910069887192496,0.0024593698624619685,0.02576291199630441,-0.003017552700392156,-0.021050748833516677,0.012222700619793024,0.9996991377103451
2,460000000,0.36088924256140903,-0.20107420936400686,9.748252880477555,-0.043958882486235466,-0.12821230405263748,-0.043938534093437655,0.003015893503487632,-0.0063125113489270746,-0.004068100882584247,-0.007366959270977877,0.0009172839199353257,0.004326351246074047,0.0005628903280836786,0.0009010687774018038,0.024259264996755382,-0.003009940867674381,-0.021042586849212674,0.01234830337028483,0.9996977889335066
2,470000000,0.35674264369049313,-0.2109705500333959,9.711131042069592,-0.04623150293729367,-0.1384017557802352,-0.08112415939017058,0.00293997306636129,-0.006309938493552991,-0.004027692817847317,-0.007820915849385053,-0.00041969526502374117,0.0036932856590606244,0.0002845730076156464,-0.0005408902794079844,0.022191500108569677,-0.003005758131234804,-0.02104201993849539,0.012464743190876041,0.9996963684000008
2,480000000,0.3568408689051754,-0.21631547009568486,9.683177996355663,-0.044898541840927605,-0.14390054455422585,-0.10900724117246352,0.002859459525495822,-0.006321166724900351,-0.003995319647854156,-0.00827957072456567,-0.0018351156524906882,0.002734876536652109,0.0008560829018488231,-0.001866707134725922,0.019559618352958684,-0.003000827078190102,-0.021048301913355372,0.012569470162913704,0.9996949396907212
2,490000000,0.36117633142282246,-0.21702738802524243,9.664395808104954,-0.03995999919713715,-0.14470867037461002,-0.12758777944031907,0.0027744861769463114,-0.006346745921849362,-0.003973769680782446,-0.008706868081045526,-0.0032820706129295736,0.0015441493139928034,0.00227743733848714,-0.0030765624776107627,0.01636360883070711,-0.002990971964274895,-0.021060683088943447,0.012659934490778684,0.9996935669360013
2,500000000,0.36974154996129843,-0.21302418722420433,9.654786062096052,-0.03141587500592273,-0.14082613324138754,-0.13686577419373533,0.0026855468749715783,-0.00638675689697088,-0.003964900970458096,-0.009066752103350336,-0.0047136535168042035,0.0002141294262271949,0.004548643138542805,-0.004170617850233308,0.01260344875340764,-0.0029720188542577517,-0.021078411543188645,0.012733587003189682,0.999692314381169
2,510000000,0.3825286535295994,-0.20424626136361776,9.654349010681704,-0.01926616926728423,-0.1322529331545586,-0.1368412254327136,0.0025934960320341816,-0.006440811396563717,-0.003969641316357908,-0.009323166976005886,-0.006082957734578577,-0.001162157691500386,0.006949165136701576,-0.005159876943561525,0.008962886253475346,-0.002940972780469793,-0.021100802310604575,0.012788942750937015,0.9996912272118159
2,520000000,0.3995288848805702,-0.19072815181497038,9.663081962377372,-0.003510881981220841,-0.11898907011412248,-0.12751413315725302,0.0024995486186583094,-0.006508052100610229,-0.003987988263603803,-0.009440056883537933,-0.007343076636716684,-0.002491686604045615,0.008758501355015453,-0.006055172415363695,0.006125705971127943,-0.0028995485318636205,-0.021127441901023846,0.012828770447657463,0.999690275268211
2,530000000,0.42073328462810855,-0.1725270360351028,9.680981190540482,0.015849986852266004,-0.10103454412008038,-0.10888449736735462,0.0024052801636287313,-0.006587152622810066,-0.004019009102969928,-0.00938136601047223,-0.008447103593682346,-0.0036814318762639926,0.009976703946419613,-0.006856396573757555,0.00409193367022639,-0.0028506382861957147,-0.021157986172246585,0.012856901957737378,0.9996894085437464
2,540000000,0.4461331255051756,-0.14969956998889727,9.70804278542491,0.038816437233178055,-0.0783893551724307,-0.08095231806301666,0.002312626753763425,-0.006676317510567742,-0.004060840870878213,-0.009111038541334524,-0.009348131975939596,-0.004638368073011238,0.010603829595333441,-0.007563443960931935,0.0028615986853788027,-0.002797134001835288,-0.021192091517640038,0.012877168688109498,0.9996885764202078
2,550000000,0.47572020044800317,-0.12230276515538932,9.744262968432253,0.0653884691614178,-0.05105350327127196,-0.04371759524440798,0.0022238850341693706,-0.006773282244983747,-0.004110690349395263,-0.008593018660650598,-0.009999255153952284,-0.005269469759142881,0.01063993951158302,-0.00817621134806042,0.0024347339160903465,-0.0027419270616159254,-0.0212294138027857,0.01289340132971659,0.9996877282570441
2,560000000,0.5048733333124863,-0.09447786573746236,9.78248146443185,0.09136773293285415,-0.023271788403846812,-0.004497097494161965,0.002141677221430882,-0.006875348614538979,-0.004164895039894478,-0.007805245118691867,-0.010367715898945461,-0.005506100844421948,0.010085099430035232,-0.00869459773406304,0.0028113758253260532,-0.002687907970531317,-0.02126960776012263,0.012909429639826905,0.9996868137386064
2,570000000,0.5289694222050706,-0.07037026623278043,9.81554209160189,0.11255595891946706,0.0007110704046701776,0.029392546159537004,0.0020685662565824714,-0.0069797738200634285,-0.004219593863926008,-0.00678163412794293,-0.01047735377555892,-0.005377181222681287,0.008939379615692926,-0.00911850434888742,0.003991564442384069,-0.0026379661072542075,-0.021312326841447248,0.012929082265376328,0.9996857829794298
2,580000000,0.5479980353328092,-0.05004489329541202,9.843447755614875,0.12895314712125844,0.020895073154281116,0.05795133571669185,0.002006670962401813,-0.007084159575688531,-0.004271397857127823,-0.005570096066251923,-0.01036615734438174,-0.0049360194348863455,0.007202854874004829,-0.009447834661979054,0.005975343369973856,-0.0025949895295791893,-0.021357223528005263,0.012956186607607218,0.9996845863876791
2,590000000,0.5619488523016434,-0.0335671434559407,9.866201764323346,0.1405592975382268,0.03728021984498424,0.0811792711773001,0.0019576310576212563,-0.007186487481133597,-0.004317451140541273,-0.004218541311467173,-0.010072115166002996,-0.004235924022002612,0.004875604566138939,-0.00968249439661441,0.008762759795395654,-0.0025618648338710218,-0.02140395009785038,0.012994568728232318,0.9996831742869082
2,600000000,0.5708114070499649,-0.021002168976124017,9.883807554053435,0.1473744101703732,0.04986651047678097,0.0990763525413638,0.0019226071572404635,-0.007285119021721798,-0.004355430920620851,-0.0027748802414367894,-0.009633215801011738,-0.0033302035249954836,0.0019577126290394723,-0.00982239155076095,0.012353864505650203,-0.0025414770684112887,-0.021452159850075588,0.01304805329717818,0.9996814962963111
2,610000000,0.574572696854938,-0.01238823921040983,9.896268568002494,0.14939848501769704,0.0586539450496702,0.11164257980888131,0.0019022807725548319,-0.007378795568396157,-0.0043835474892297555,-0.001287023234009118,-0.00908744780999707,-0.002272166484830493,-0.0008070325609825514,-0.00980197523548574,0.01602240055117613,-0.00253549953125547,-0.02150134794957354,0.013119333555235188,0.9996795218296436
2,620000000,0.5732104420632106,-0.00765814474839706,9.90358834777131,0.14663152208019845,0.06364252356365273,0.11887795297985383,0.0018968543110986502,-0.007466638377701784,-0.004400544223643443,0.0001971193329677462,-0.008472799753548019,-0.0011151214424730011,-0.0026749489458764053,-0.009555847061551772,0.019042044562880885,-0.002540764549404853,-0.02155036907606333,0.013206582391007346,0.9996773040785409
2,630000000,0.5666993408315074,-0.006716733234465827,9.905769847158876,0.1390735213578777,0.06483224601872811,0.12078247205428069,0.0019060510764745686,-0.007548148591787651,-0.004405697586542079,0.0016296370816454493,-0.007827260192253707,8.762306111143286e-05,-0.0036460597888709582,-0.009084152966719997,0.02141271366967023,-0.0025528961009967464,-0.021597916792738887,0.013306844249906967,0.9996749174645827
2,640000000,0.5550135166809269,-0.009467518292437657,9.902815454273634,0.12672448285073418,0.06222311241489643,0.11735613703216201,0.0019291152687515023,-0.007623207238401264,-0.004398817126020749,0.0029626196341758903,-0.007188817686703147,0.0012827584849574617,-0.0037203799985879825,-0.008387053836977009,0.023134331416296505,-0.002567520504449455,-0.021642682266127207,0.013417165482490286,0.9996724372579261
2,650000000,0.5381268853569702,-0.01581347069122776,9.894727210493581,0.10958440655878803,0.05581512275216924,0.10859894791351009,0.001964811983953041,-0.007692075230908202,-0.004380245475579692,0.004148156612710732,-0.006595460797485466,0.0024169762880995264,-0.0028979161414642864,-0.0074647255046104,0.02420682776064785,-0.002580266594462423,-0.021683352944608193,0.013534594275765413,0.9996699401238248
2,660000000,0.5195215911096397,-0.02377313175632979,9.883470378980915,0.09101996511952126,0.04760066347660599,0.0966107390561686,0.0020114552702068522,-0.00775537676497251,-0.004350840855427585,0.005149559908282901,-0.006078536781201968,0.0034439673941198544,-0.0011786664475103728,-0.006317358752149753,0.02463013908079345,-0.002586765743971861,-0.021718611772105583,0.01365618036058212,0.9996675043651453
2,670000000,0.5026825461466169,-0.031369549296141816,9.871009470170245,0.07439779906353708,0.03957210203351403,0.0834913247925333,0.002067216738652178,-0.007813916683545585,-0.004311784588082457,0.005975030166378774,-0.005642827868511772,0.004345420384535257,0.001437379191564547,-0.004945159320867577,0.024404208193568245,-0.0025826517313923534,-0.021747136936237657,0.013778974494474764,0.9996652098612773
2,680000000,0.4875882626185932,-0.03851328145289975,9.857345458834365,0.05971790839083399,0.03172943842289265,0.06924070512260304,0.0021304341725851828,-0.007868497842764555,-0.004264388614969139,0.006643990140831242,-0.005286475081090121,0.005110023205282869,0.004950239232821158,-0.00334834792254112,0.023528984386479712,-0.002563560452240456,-0.02176760215032252,0.013900027719185026,0.9996631377038162
2,690000000,0.4742177025144465,-0.04511592701012829,9.842479544968787,0.04698029310141332,0.024072672644742554,0.05385888004637907,0.0021996395830115034,-0.00791990450898794,-0.004210077998054729,0.007175862585473066,-0.005007619440612343,0.0057264638022996766,0.009359940502110402,-0.0015271602531685313,0.02200442346472264,-0.0025251294741363635,-0.02177867746886211,0.014016390392162065,0.9996613695293124
2,700000000,0.46255027961924544,-0.051090116803293915,9.826413148930666,0.03618495319527393,0.016601804699063055,0.03734584956386006,0.002273559208418874,-0.007968902358804542,-0.004150390919849034,0.00759007025413711,-0.004804401968753704,0.006183430121522796,0.014666518224613963,0.0005181529926744181,0.019830487815089927,-0.002462997434210531,-0.021779030636490507,0.014125110991609555,0.9996599865492509
2,710000000,0.45257505790478025,-0.05637714274361509,9.809147315230618,0.027331888672416774,0.009316834585854814,0.01970161367504744,0.0023511135146918605,-0.008016238478999682,-0.004086978683397913,0.007906035900656156,-0.004674963687189509,0.006469610108889241,0.02005155035105429,0.0025025153675960576,0.017587004747117833,-0.0023741269783194635,-0.02176786355608295,0.0142241111532674,0.999659041023085
2,720000000,0.4443181035820568,-0.06102934021011276,9.790680906795025,0.02042109953284106,0.002217762305117185,0.000926172379939659,0.0024314171955097663,-0.00806264136658541,-0.004021605712291265,0.00814318227886305,-0.004617445617595041,0.006573691710336089,0.024696522876706112,0.004141172801542618,0.015853867609806,-0.002260774603420403,-0.02174651865359387,0.01431481489314707,0.9996584736294772
2,730000000,0.43781443591991065,-0.06512626051160003,9.771012275138087,0.015452585776547421,-0.004695412143149192,-0.01898047432146161,0.0025137791718918834,-0.008108820928795168,-0.003956149550657706,0.008320932142590585,-0.004629988781645593,0.006484362871800394,0.028601361094588464,0.0054343632417798516,0.014631129146963809,-0.002126518590269167,-0.02171687608672482,0.014399521492162108,0.9996581960812985
2,740000000,0.43309874765725576,-0.06874690332825709,9.750139819429643,0.0124263474035354,-0.01142268875894494,-0.040018326429158146,0.0025977025925101316,-0.008155468483073136,-0.0038926008631685605,0.008458708245671603,-0.004710734201016458,0.006190311539219201,0.03176598796365894,0.006382335549828129,0.013918845930311934,-0.001974935762393444,-0.02168081780875559,0.014480530688985877,0.9996581195583034
2,750000000,0.4302053851398855,-0.07196971889540207,9.728061964697883,0.01134238441380527,-0.017964067542269462,-0.06218738394314809,0.0026828848335185285,-0.008203256757076005,-0.003833063435034312,0.008575933341938902,-0.004857822897382919,0.0056802256585295925,0.034190324095850495,0.006985349507682911,0.013717078314452553,-0.0018096020106050667,-0.021640226288968275,0.014560143908883447,0.9996581556492589
2,760000000,0.428817762784555,-0.0738563821841556,9.707677637951262,0.011695691718928846,-0.02330281417372824,-0.08261018838419175,0.002769213290122252,-0.008252831415896722,-0.0037797301931847826,0.00869034683493055,-0.005066006778022287,0.004952384703932752,0.03587428775239293,0.007243675824361083,0.014025890404111181,-0.0016340926434468472,-0.021596983573056904,0.01464066522415339,0.9996582170740017
2,770000000,0.42861864331235827,-0.07346360255455513,9.691884144838305,0.0129812642304782,-0.026422194333926546,-0.09840928127304918,0.0028567190848320934,-0.008304717861413735,-0.0037346194392440246,0.008812954727005565,-0.0053164812926199505,0.00404343426268637,0.03681779485019721,0.007157596142582937,0.01484535003470285,-0.0014519825632535773,-0.021552970683576,0.01472440204622378,0.9996582181854607
2,780000000,0.42964096148625147,-0.07086139114806035,9.680677364437773,0.015199101948453218,-0.02732220802286409,-0.10958466260971893,0.0029455307748378345,-0.008359228031643795,-0.003699311082500767,0.008953079670228197,-0.005587052776463281,0.002999611450312397,0.037020758979106824,0.006727403045406784,0.01617552876725983,-0.0012668462675690067,-0.021510067360815975,0.014813665549736166,0.9996580752515573
2,790000000,0.43191765228192175,-0.06611930708128229,9.674053119218138,0.018349204872854095,-0.026002855240540985,-0.11613633239420205,0.0030358701438899516,-0.008416451927956814,-0.00367492266108993,0.009120044316662718,-0.005855527564839698,0.0018671533823326108,0.03648309143081682,0.005953400062632106,0.01801650189876035,-0.001082257675671394,-0.021470152144708078,0.014910770829134013,0.9996577065168295
2,800000000,0.4354819150320777,-0.05930686147538648,9.672007293792577,0.022431573003680552,-0.022464135986957325,-0.11806429062649794,0.0031280522023280355,-0.00847625761507409,-0.0036621093419881845,0.009323171318373362,-0.006099711993036567,0.0006922971742689785,0.03520470124027021,0.004835901676801003,0.02036834848888485,-0.0009017897799618703,-0.021435102798452076,0.015018036788361775,0.9996570320436083
2,810000000,0.4403576583683726,-0.05047965620045046,9.674536469080824,0.02744620634093295,-0.016706050262112797,-0.11536853730660673,0.0032224851869671056,-0.008538291221068306,-0.0036610639210188367,0.009571783327424414,-0.006297412396341307,-0.0004787200583567283,0.03360466046626817,0.003682302769873848,0.022721090886250576,-0.0007283565923719424,-0.021406253654249932,0.015136980515167776,0.9996559976422128
2,820000000,0.44653014071091374,-0.0396368157429611,9.681639521614594,0.03339310488461085,-0.008728598066007908,-0.10804907243452873,0.0033196705610976096,-0.008601976937367084,-0.003671516822852272,0.009875202995880107,-0.006426435110041291,-0.001599661200022537,0.03210214838666878,0.002799647410175266,0.024564647727038577,-0.0005622407586898861,-0.021382767218759202,0.015265899330510087,0.9996546471002015
2,830000000,0.4539751540193387,-0.026763653759410946,9.693315999136212,0.04027226863471477,0.001468220601358039,-0.09610589601026323,0.0034202030145991102,-0.00866651701875476,-0.00369273610099885,0.010242752975804723,-0.006464586469423926,-0.0026242891352066763,0.030697245530079003,0.00218774520707322,0.02589893323398668,-0.0004030674449400977,-0.02136326620527962,0.015402283375388192,0.999653048842698
2,840000000,0.46266859065957106,-0.011845811230257504,9.709565601354496,0.048083697591244104,0.013884405739984146,-0.0795390080338113,0.003524770463798177,-0.008730891783361727,-0.00372352743781601,0.010683755919262485,-0.0063896728097766,-0.003506366748387186,0.029390032858014243,0.0018464115590028313,0.026723864919263186,-0.0002504624653159413,-0.021346376778120516,0.015543620620663966,0.9996512718568416
2,850000000,0.47258621311068794,0.005130852632670608,9.730388194518426,0.05682739175419955,0.028519957349871502,-0.058348408505171506,0.003634154051724181,-0.008793859612675092,-0.0037622341445082697,0.011207534478317694,-0.0061795004663867,-0.004199656924042272,0.028180591754989652,0.001775467655280094,0.027039363570721904,-0.00010405261898362965,-0.021330728158005317,0.015687397085605816,0.9996493859258756
2,860000000,0.48063276723290244,0.021564324623358343,9.752094331405047,0.06367705265187829,0.04266057492499754,-0.036345866737728195,0.003749204595237643,-0.008853979570591974,-0.0038067689257132997,0.011813990332590287,-0.005820923421323723,-0.004670628414068059,0.02706900402663367,0.0019747404798924895,0.02684535324118308,3.653411126064495e-05,-0.021314952268669515,0.01583109703295246,0.9996474617792895
2,870000000,0.48370992303546206,0.034851904524651506,9.7709972326389,0.06580635485881581,0.05359193207367816,-0.017343188396835407,0.003870583507733727,-0.008909860214851406,-0.003854963292453828,0.01246534100238607,-0.005336986502641614,-0.004936573803552072,0.026055351905372708,0.0024440628173357324,0.026141761240690772,0.000171668498297831,-0.021297683424509245,0.015972203140615805,0.9996455711588538
2,880000000,0.48178840966329534,0.04500679228261565,9.787100713560791,0.06321529837499582,0.06131402879589692,-0.0013403734825165067,0.003998503719373048,-0.008960408409743437,-0.0039049169768961,0.013114382900797411,-0.0047597823146050345,-0.005027491726760018,0.025139718063243232,0.003183273260554129,0.024928518131692265,0.00030172014783406596,-0.021277558059099727,0.01610819665013628,0.9996437868004154
2,890000000,0.47483883899665374,0.05204216364076806,9.80040818818976,0.05590388320041813,0.06582686509165454,0.011662578005229941,0.004132706124522656,-0.00900485194559053,-0.003955029697548795,0.013713912440916793,-0.004121403461478543,-0.004973380817957638,0.024322185631382172,0.004192216221048552,0.023205557727087288,0.0004270577132950635,-0.02125321449439486,0.016236557491986697,0.999642182331345
2,900000000,0.46283193754140095,0.055970886809180734,9.810922564748447,0.043872109335083384,0.06713044096095065,0.021665666066402776,0.004272459581699195,-0.009042739538770661,-0.0040040011592630265,0.01421672603583659,-0.003453942547526814,-0.004804239711410667,0.023602838225749465,0.0054707419412150056,0.020972817091096486,0.0005480492483885011,-0.021223292750447986,0.016354764387795182,0.9996408320835388
